stimuli_letter,target,correct_key,Letter_stimulus,trialsOne.thisRepN,trialsOne.thisTrialN,trialsOne.thisN,trialsOne.thisIndex,trialsTwo.thisRepN,trialsTwo.thisTrialN,trialsTwo.thisN,trialsTwo.thisIndex,WelcomeScreenText.started,WelcomeScreenText.stopped,WelcomeInstructions.started,keyWelcome.started,keyWelcome.keys,keyWelcome.rt,text.started,text.stopped,eegtime,n_back_one.started,Key_one.started,n_back_one.stopped,Key_one.stopped,Key_one.keys,Key_one.corr,ISI.started,ISI.stopped,Key_one.rt,Intro_Block_two.started,Start_Block_One.started,Start_Block_One.keys,Start_Block_One.rt,Block_2_stimulus.started,key_Two.started,Block_2_stimulus.stopped,key_Two.stopped,key_Two.keys,key_Two.corr,key_Two.rt,GoodBye.started,participant,session,date,expName,psychopyVersion,frameRate,
,,,,,,,,,,,,22.174540799998795,24.17308409999896,24.17308409999896,25.17283779999707,z,39.47501140000168,,,,,,,,,,,,,,,,,,,,,,,,,861083,001,2024-05-15_18h29.13.990,nBack,2022.2.5,59.733302749649454,
V,None,None,,0,0,0,0,,,,,,,,,,,64.67488779999985,65.1870173999996,72,65.1870173999996,65.25822849999895,65.49125069999718,66.35848969999643,None,1,66.35848969999643,67.85794109999915,,,,,,,,,,,,,,861083,001,2024-05-15_18h29.13.990,nBack,2022.2.5,59.733302749649454,
X,N,None,,0,1,1,1,,,,,,,,,,,,,145,67.85794109999915,67.95828749999782,68.15831639999669,69.05832759999976,None,1,69.07513069999914,70.57575819999693,,,,,,,,,,,,,,861083,001,2024-05-15_18h29.13.990,nBack,2022.2.5,59.733302749649454,
A,N,None,,0,2,2,2,,,,,,,,,,,,,217,70.57575819999693,70.65830239999923,70.89163719999851,71.75810079999792,None,1,71.75810079999792,73.25815449999936,,,,,,,,,,,,,,861083,001,2024-05-15_18h29.13.990,nBack,2022.2.5,59.733302749649454,
A,Y,z,,0,3,3,3,,,,,,,,,,,,,271,73.25815449999936,73.35828799999945,73.55842889999985,,z,1,74.14188069999727,75.64227729999766,0.7515794000028109,,,,,,,,,,,,,861083,001,2024-05-15_18h29.13.990,nBack,2022.2.5,59.733302749649454,
X,N,None,,0,4,4,4,,,,,,,,,,,,,344,75.64227729999766,75.74170909999884,75.94215809999878,76.84340009999869,None,1,76.84340009999869,,,,,,,,,,,,,,,861083,001,2024-05-15_18h29.13.990,nBack,2022.2.5,59.733302749649454,
B,N,None,,0,5,5,5,,,,,,,,,,,,,416,78.35854379999728,78.4424629999994,78.65857979999782,,None,1,79.55866349999997,,,,,,,,,,,,,,,861083,001,2024-05-15_18h29.13.990,nBack,2022.2.5,59.733302749649454,
B,Y,z,,0,6,6,6,,,,,,,,,,,,,452,81.05856149999818,81.14395829999921,81.35859039999923,,z,1,81.64288129999841,,0.4716599999992468,,,,,,,,,,,,,861083,001,2024-05-15_18h29.13.990,nBack,2022.2.5,59.733302749649454,
X,N,None,,0,7,7,7,,,,,,,,,,,,,523,83.15856129999884,83.22541909999927,83.45897149999655,84.32558869999775,None,1,84.342028199997,85.84254419999706,,,,,,,,,,,,,,861083,001,2024-05-15_18h29.13.990,nBack,2022.2.5,59.733302749649454,
Y,N,None,,0,8,8,8,,,,,,,,,,,,,596,85.84254419999706,85.94231709999804,86.14237429999775,87.04214369999681,None,1,87.04214369999681,88.54273379999722,,,,,,,,,,,,,,861083,001,2024-05-15_18h29.13.990,nBack,2022.2.5,59.733302749649454,
Y,Y,z,,0,9,9,9,,,,,,,,,,,,,635,88.54273379999722,88.6423240999975,88.84368949999771,,z,1,89.17561899999782,90.67827569999645,0.5028351000000839,,,,,,,,,,,,,861083,001,2024-05-15_18h29.13.990,nBack,2022.2.5,59.733302749649454,
B,N,None,,0,10,10,10,,,,,,,,,,,,,708,90.67827569999645,90.77576829999816,90.99251509999885,91.87715879999814,None,1,91.87715879999814,,,,,,,,,,,,,,,861083,001,2024-05-15_18h29.13.990,nBack,2022.2.5,59.733302749649454,
Y,N,None,,0,11,11,11,,,,,,,,,,,,,780,93.39233999999851,93.4759086999984,93.69252359999882,94.57583209999939,None,1,94.57583209999939,96.07590759999948,,,,,,,,,,,,,,861083,001,2024-05-15_18h29.13.990,nBack,2022.2.5,59.733302749649454,
V,N,None,,0,12,12,12,,,,,,,,,,,,,852,96.07590759999948,96.15927879999799,96.37601419999919,97.25926479999907,None,1,97.27799719999894,,,,,,,,,,,,,,,861083,001,2024-05-15_18h29.13.990,nBack,2022.2.5,59.733302749649454,
C,N,None,,0,13,13,13,,,,,,,,,,,,,923,98.7925030999977,98.86044039999979,99.09281169999667,99.95989439999903,None,1,99.95989439999903,101.45943629999965,,,,,,,,,,,,,,861083,001,2024-05-15_18h29.13.990,nBack,2022.2.5,59.733302749649454,
C,Y,z,,0,14,14,14,,,,,,,,,,,,,960,101.45943629999965,101.55941169999642,101.75941669999884,,z,1,102.05940029999692,103.55948829999761,0.4802659999986645,,,,,,,,,,,,,861083,001,2024-05-15_18h29.13.990,nBack,2022.2.5,59.733302749649454,
V,N,None,,0,15,15,15,,,,,,,,,,,,,1033,103.55948829999761,103.66020619999836,103.8597404999964,104.75951519999944,None,1,104.75951519999944,106.25965489999726,,,,,,,,,,,,,,861083,001,2024-05-15_18h29.13.990,nBack,2022.2.5,59.733302749649454,
X,N,None,,0,16,16,16,,,,,,,,,,,,,1106,106.25965489999726,106.35956439999791,106.55959099999745,107.45982729999741,None,1,107.45982729999741,108.95975549999639,,,,,,,,,,,,,,861083,001,2024-05-15_18h29.13.990,nBack,2022.2.5,59.733302749649454,
Y,N,None,,0,17,17,17,,,,,,,,,,,,,1179,108.95975549999639,109.05979379999917,109.25982999999906,110.1599049999968,None,1,110.1599049999968,111.65983189999679,,,,,,,,,,,,,,861083,001,2024-05-15_18h29.13.990,nBack,2022.2.5,59.733302749649454,
C,N,None,,0,18,18,18,,,,,,,,,,,,,1252,111.65983189999679,111.76007459999892,111.96007919999829,112.8600895999989,None,1,112.8600895999989,114.3599957999977,,,,,,,,,,,,,,861083,001,2024-05-15_18h29.13.990,nBack,2022.2.5,59.733302749649454,
C,Y,z,,0,19,19,19,,,,,,,,,,,,,1289,114.3599957999977,114.46028079999815,114.66007999999783,,z,1,114.96027489999688,116.45997319999879,0.4835354999995616,,,,,,,,,,,,,861083,001,2024-05-15_18h29.13.990,nBack,2022.2.5,59.733302749649454,
A,N,None,,0,20,20,20,,,,,,,,,,,,,1362,116.45997319999879,116.56040369999755,116.76002609999705,117.66018669999903,None,1,117.66018669999903,119.16052279999712,,,,,,,,,,,,,,861083,001,2024-05-15_18h29.13.990,nBack,2022.2.5,59.733302749649454,
W,N,None,,0,21,21,21,,,,,,,,,,,,,1435,119.16052279999712,119.26024359999792,119.46048589999918,120.36043309999877,None,1,120.36043309999877,121.86018299999705,,,,,,,,,,,,,,861083,001,2024-05-15_18h29.13.990,nBack,2022.2.5,59.733302749649454,
X,N,None,,0,22,22,22,,,,,,,,,,,,,1508,121.86018299999705,121.96047659999749,122.16039929999897,123.06039719999899,None,1,123.06039719999899,124.56073589999869,,,,,,,,,,,,,,861083,001,2024-05-15_18h29.13.990,nBack,2022.2.5,59.733302749649454,
X,Y,z,,0,23,23,23,,,,,,,,,,,,,1544,124.56073589999869,124.66053499999907,124.86058029999913,,z,1,125.14428999999654,126.64423019999958,0.4546552000028896,,,,,,,,,,,,,861083,001,2024-05-15_18h29.13.990,nBack,2022.2.5,59.733302749649454,
A,N,None,,0,24,24,24,,,,,,,,,,,,,1617,126.64423019999958,126.74387779999961,126.94403769999917,127.84426919999896,None,1,127.84426919999896,129.34401679999792,,,,,,,,,,,,,,861083,001,2024-05-15_18h29.13.990,nBack,2022.2.5,59.733302749649454,
X,N,None,,0,25,25,25,,,,,,,,,,,,,1690,129.34401679999792,129.4444427999988,129.64470079999955,130.54464319999897,None,1,130.54464319999897,,,,,,,,,,,,,,,861083,001,2024-05-15_18h29.13.990,nBack,2022.2.5,59.733302749649454,
X,Y,z,,0,26,26,26,,,,,,,,,,,,,1722,132.04424179999842,132.14439239999774,132.34449769999992,,z,1,132.56130119999943,134.06082739999692,0.3932678000019223,,,,,,,,,,,,,861083,001,2024-05-15_18h29.13.990,nBack,2022.2.5,59.733302749649454,
C,N,None,,0,27,27,27,,,,,,,,,,,,,1795,134.06082739999692,134.16328619999695,134.36079769999924,,None,1,135.27754999999888,,,,,,,,,,,,,,,861083,001,2024-05-15_18h29.13.990,nBack,2022.2.5,59.733302749649454,
V,N,None,,0,28,28,28,,,,,,,,,,,,,1867,136.77769219999755,136.86292949999915,137.07885759999772,,None,1,137.97805279999739,,,,,,,,,,,,,,,861083,001,2024-05-15_18h29.13.990,nBack,2022.2.5,59.733302749649454,
Y,N,None,,0,29,29,29,,,,,,,,,,,,,1938,139.47830479999902,139.54498479999893,139.7776776999999,140.6444612999985,None,1,140.66339049999806,,,,,,,,,,,,,,,861083,001,2024-05-15_18h29.13.990,nBack,2022.2.5,59.733302749649454,
X,N,None,,0,30,30,30,,,,,,,,,,,,,2009,142.17813229999956,142.24474049999844,142.47806889999993,143.3446922999974,None,1,143.3446922999974,144.84495029999744,,,,,,,,,,,,,,861083,001,2024-05-15_18h29.13.990,nBack,2022.2.5,59.733302749649454,
B,N,None,,0,31,31,31,,,,,,,,,,,,,2082,144.8621525999988,144.9445796,145.17782239999724,146.04458799999702,None,1,146.06179519999932,147.56176439999763,,,,,,,,,,,,,,861083,001,2024-05-15_18h29.13.990,nBack,2022.2.5,59.733302749649454,
W,N,None,,0,32,32,32,,,,,,,,,,,,,2154,147.56176439999763,147.64484209999864,147.86299569999755,148.7446717999992,None,1,148.76150099999722,150.26196379999965,,,,,,,,,,,,,,861083,001,2024-05-15_18h29.13.990,nBack,2022.2.5,59.733302749649454,
B,N,None,,0,33,33,33,,,,,,,,,,,,,2227,150.26196379999965,150.36176759999944,150.56183389999933,151.46177899999748,None,1,151.46177899999748,152.9628733999998,,,,,,,,,,,,,,861083,001,2024-05-15_18h29.13.990,nBack,2022.2.5,59.733302749649454,
B,Y,z,,0,34,34,34,,,,,,,,,,,,,2261,152.9628733999998,153.04511399999683,153.27853229999891,,z,1,153.51175619999776,155.01173599999674,0.434548299999733,,,,,,,,,,,,,861083,001,2024-05-15_18h29.13.990,nBack,2022.2.5,59.733302749649454,
W,N,None,,0,35,35,35,,,,,,,,,,,,,2334,155.01173599999674,155.1120822999983,155.31176779999805,156.21219819999897,None,1,156.21219819999897,157.71214269999837,,,,,,,,,,,,,,861083,001,2024-05-15_18h29.13.990,nBack,2022.2.5,59.733302749649454,
W,Y,z,,0,36,36,36,,,,,,,,,,,,,2407,157.71214269999837,157.81203639999876,158.01220419999663,158.9120961999979,None,0,158.9120961999979,160.41217439999673,,,,,,,,,,,,,,861083,001,2024-05-15_18h29.13.990,nBack,2022.2.5,59.733302749649454,
W,Y,z,,0,37,37,37,,,,,,,,,,,,,2480,160.41217439999673,160.51197319999847,160.7120358999964,161.61223929999687,None,0,161.61223929999687,163.11193309999726,,,,,,,,,,,,,,861083,001,2024-05-15_18h29.13.990,nBack,2022.2.5,59.733302749649454,
C,N,None,,0,38,38,38,,,,,,,,,,,,,2553,163.11193309999726,163.21238569999696,163.41196789999958,164.31204939999952,None,1,164.31204939999952,165.81222019999768,,,,,,,,,,,,,,861083,001,2024-05-15_18h29.13.990,nBack,2022.2.5,59.733302749649454,
Y,N,None,,0,39,39,39,,,,,,,,,,,,,2626,165.81222019999768,165.91228069999852,166.1124757999969,167.01218339999832,None,1,167.01218339999832,168.51218249999874,,,,,,,,,,,,,,861083,001,2024-05-15_18h29.13.990,nBack,2022.2.5,59.733302749649454,
A,N,None,,0,40,40,40,,,,,,,,,,,,,2699,168.51218249999874,168.61237399999663,168.8123968,169.7123861,None,1,169.7123861,171.2123501999995,,,,,,,,,,,,,,861083,001,2024-05-15_18h29.13.990,nBack,2022.2.5,59.733302749649454,
A,Y,z,,0,41,41,41,,,,,,,,,,,,,2739,171.2123501999995,171.3122775999982,171.51247429999785,,z,1,171.8625566999981,173.36298349999925,0.5308847000014794,,,,,,,,,,,,,861083,001,2024-05-15_18h29.13.990,nBack,2022.2.5,59.733302749649454,
Y,N,None,,0,42,42,42,,,,,,,,,,,,,2812,173.36298349999925,173.4636756999971,173.6626808999972,,None,1,174.5792032999998,,,,,,,,,,,,,,,861083,001,2024-05-15_18h29.13.990,nBack,2022.2.5,59.733302749649454,
W,N,None,,0,43,43,43,,,,,,,,,,,,,2884,176.07922979999785,176.16493069999706,176.37928329999704,,None,1,177.27942399999665,,,,,,,,,,,,,,,861083,001,2024-05-15_18h29.13.990,nBack,2022.2.5,59.733302749649454,
B,N,None,,0,44,44,44,,,,,,,,,,,,,2956,178.77953199999683,178.86277569999947,179.07948419999957,179.9628554999981,None,1,179.9628554999981,181.46303969999644,,,,,,,,,,,,,,861083,001,2024-05-15_18h29.13.990,nBack,2022.2.5,59.733302749649454,
Y,N,None,,0,45,45,45,,,,,,,,,,,,,3029,181.46303969999644,181.56293579999692,181.76296399999774,182.66279759999816,None,1,182.66279759999816,184.16337069999645,,,,,,,,,,,,,,861083,001,2024-05-15_18h29.13.990,nBack,2022.2.5,59.733302749649454,
C,N,None,,0,46,46,46,,,,,,,,,,,,,3102,184.16337069999645,184.26313149999987,184.4631292999984,185.36321209999733,None,1,185.36321209999733,186.86424009999973,,,,,,,,,,,,,,861083,001,2024-05-15_18h29.13.990,nBack,2022.2.5,59.733302749649454,
C,Y,z,,0,47,47,47,,,,,,,,,,,,,3142,186.86424009999973,186.94636339999852,187.17986019999807,,z,1,187.51320909999777,189.013087299998,0.5493489000000409,,,,,,,,,,,,,861083,001,2024-05-15_18h29.13.990,nBack,2022.2.5,59.733302749649454,
V,N,None,,0,48,48,48,,,,,,,,,,,,,3215,189.013087299998,189.1131929999974,189.31314099999872,190.21315159999722,None,1,190.21315159999722,191.71318969999993,,,,,,,,,,,,,,861083,001,2024-05-15_18h29.13.990,nBack,2022.2.5,59.733302749649454,
B,N,None,,0,49,49,49,,,,,,,,,,,,,3288,191.71318969999993,191.81397579999975,192.0139300999981,192.9138505999981,None,1,192.9138505999981,194.41346919999705,,,,,,,,,,,,,,861083,001,2024-05-15_18h29.13.990,nBack,2022.2.5,59.733302749649454,
X,N,None,,0,50,50,50,,,,,,,,,,,,,3361,194.41346919999705,194.51324039999963,194.71343809999962,195.6133637999992,None,1,195.6133637999992,197.11340349999955,,,,,,,,,,,,,,861083,001,2024-05-15_18h29.13.990,nBack,2022.2.5,59.733302749649454,
X,Y,z,,0,51,51,51,,,,,,,,,,,,,3396,197.11340349999955,197.21339269999953,197.41403909999644,,z,1,197.68029129999923,199.1802910999977,0.45035769999958575,,,,,,,,,,,,,861083,001,2024-05-15_18h29.13.990,nBack,2022.2.5,59.733302749649454,
V,N,None,,0,52,52,52,,,,,,,,,,,,,3469,199.1802910999977,199.2810892999987,199.48009309999907,200.3803881999993,None,1,200.3803881999993,201.8803255999992,,,,,,,,,,,,,,861083,001,2024-05-15_18h29.13.990,nBack,2022.2.5,59.733302749649454,
Y,N,None,,0,53,53,53,,,,,,,,,,,,,3542,201.8803255999992,201.98046339999928,202.1802880999967,203.08042939999723,None,1,203.08042939999723,204.5815115999976,,,,,,,,,,,,,,861083,001,2024-05-15_18h29.13.990,nBack,2022.2.5,59.733302749649454,
B,N,None,,0,54,54,54,,,,,,,,,,,,,3615,204.5815115999976,204.6805095999989,204.88046309999845,205.78046449999965,None,1,205.78046449999965,207.28061839999646,,,,,,,,,,,,,,861083,001,2024-05-15_18h29.13.990,nBack,2022.2.5,59.733302749649454,
B,Y,z,,0,55,55,55,,,,,,,,,,,,,3646,207.28061839999646,207.38060749999931,207.58055629999944,,z,1,207.78152109999792,,0.37107599999944796,,,,,,,,,,,,,861083,001,2024-05-15_18h29.13.990,nBack,2022.2.5,59.733302749649454,
B,Y,z,,0,56,56,56,,,,,,,,,,,,,3718,209.29759309999645,209.380838699999,209.59795589999703,210.48086949999924,None,0,210.48086949999924,211.9816284999979,,,,,,,,,,,,,,861083,001,2024-05-15_18h29.13.990,nBack,2022.2.5,59.733302749649454,
A,N,None,,0,57,57,57,,,,,,,,,,,,,3791,211.9816284999979,212.0812279999991,212.28101249999963,213.1807439999975,None,1,213.1807439999975,214.6809549999998,,,,,,,,,,,,,,861083,001,2024-05-15_18h29.13.990,nBack,2022.2.5,59.733302749649454,
X,N,None,,0,58,58,58,,,,,,,,,,,,,3864,214.6809549999998,214.78101739999693,214.98139499999888,215.8810216999991,None,1,215.8810216999991,217.38124089999837,,,,,,,,,,,,,,861083,001,2024-05-15_18h29.13.990,nBack,2022.2.5,59.733302749649454,
C,N,None,,0,59,59,59,,,,,,,,,,,,,3937,217.38124089999837,217.48125529999743,217.68121459999747,218.58115389999875,None,1,218.58115389999875,220.08129789999657,,,,,,,,,,,,,,861083,001,2024-05-15_18h29.13.990,nBack,2022.2.5,59.733302749649454,
X,N,None,,0,60,60,60,,,,,,,,,,,,,4009,220.08129789999657,220.18100159999813,220.38137039999856,,None,1,221.2811518999988,222.78125819999696,,,,,,,,,,,,,,861083,001,2024-05-15_18h29.13.990,nBack,2022.2.5,59.733302749649454,
V,N,None,,0,61,61,61,,,,,,,,,,,,,4081,222.78125819999696,222.86488149999786,223.08121349999783,223.9648550999991,None,1,223.98376299999654,,,,,,,,,,,,,,,861083,001,2024-05-15_18h29.13.990,nBack,2022.2.5,59.733302749649454,
V,Y,z,,0,62,62,62,,,,,,,,,,,,,4121,225.49816059999648,225.58179149999705,225.79827219999788,,z,1,226.14858619999723,227.6481309999981,0.5359046000012313,,,,,,,,,,,,,861083,001,2024-05-15_18h29.13.990,nBack,2022.2.5,59.733302749649454,
A,N,None,,0,63,63,63,,,,,,,,,,,,,4194,227.6481309999981,227.74809879999884,227.94814269999915,228.848240299998,None,1,228.848240299998,230.34899139999834,,,,,,,,,,,,,,861083,001,2024-05-15_18h29.13.990,nBack,2022.2.5,59.733302749649454,
Y,N,None,,0,64,64,64,,,,,,,,,,,,,4267,230.34899139999834,230.44904439999664,230.64897839999685,231.54993449999893,None,1,231.54993449999893,,,,,,,,,,,,,,,861083,001,2024-05-15_18h29.13.990,nBack,2022.2.5,59.733302749649454,
Y,Y,z,,0,65,65,65,,,,,,,,,,,,,4305,233.064985099998,233.13186459999997,233.36529189999783,,z,1,233.68385059999855,,0.5298055999992357,,,,,,,,,,,,,861083,001,2024-05-15_18h29.13.990,nBack,2022.2.5,59.733302749649454,
B,N,None,,0,66,66,66,,,,,,,,,,,,,4377,235.19880879999982,235.2818376999967,235.49866439999823,236.38382679999995,None,1,236.38382679999995,,,,,,,,,,,,,,,861083,001,2024-05-15_18h29.13.990,nBack,2022.2.5,59.733302749649454,
V,N,None,,0,67,67,67,,,,,,,,,,,,,4448,237.89870699999665,237.96538059999875,238.19840369999656,239.06585559999803,None,1,239.06585559999803,240.56558179999774,,,,,,,,,,,,,,861083,001,2024-05-15_18h29.13.990,nBack,2022.2.5,59.733302749649454,
V,Y,z,,0,68,68,68,,,,,,,,,,,,,4486,240.56558179999774,240.6657948999964,240.86570609999762,,z,1,241.18272499999875,242.68382969999948,0.49588560000120196,,,,,,,,,,,,,861083,001,2024-05-15_18h29.13.990,nBack,2022.2.5,59.733302749649454,
A,N,None,,0,69,69,69,,,,,,,,,,,,,4558,242.68382969999948,242.7653539999992,243.0002106999964,243.86543149999852,None,1,243.86543149999852,245.3661409999986,,,,,,,,,,,,,,861083,001,2024-05-15_18h29.13.990,nBack,2022.2.5,59.733302749649454,
W,N,None,,0,70,70,70,,,,,,,,,,,,,4631,245.3661409999986,245.4658838999967,245.66556599999967,246.56575819999853,None,1,246.56575819999853,248.06591729999855,,,,,,,,,,,,,,861083,001,2024-05-15_18h29.13.990,nBack,2022.2.5,59.733302749649454,
W,Y,z,,0,71,71,71,,,,,,,,,,,,,4670,248.06591729999855,248.1844089999977,248.36570629999915,,z,1,248.69924439999886,250.1990154999985,0.4937640999996802,,,,,,,,,,,,,861083,001,2024-05-15_18h29.13.990,nBack,2022.2.5,59.733302749649454,
Y,N,None,,0,72,72,72,,,,,,,,,,,,,4743,250.1990154999985,250.29976659999738,250.49906609999744,251.39909129999796,None,1,251.39909129999796,252.8992901999991,,,,,,,,,,,,,,861083,001,2024-05-15_18h29.13.990,nBack,2022.2.5,59.733302749649454,
B,N,None,,0,73,73,73,,,,,,,,,,,,,4816,252.8992901999991,252.99921719999838,253.19934869999997,254.09937619999982,None,1,254.09937619999982,255.60186709999834,,,,,,,,,,,,,,861083,001,2024-05-15_18h29.13.990,nBack,2022.2.5,59.733302749649454,
C,N,None,,0,74,74,74,,,,,,,,,,,,,4889,255.60186709999834,255.6992575999975,255.9160036999965,256.7994061999998,None,1,256.7994061999998,258.30232219999743,,,,,,,,,,,,,,861083,001,2024-05-15_18h29.13.990,nBack,2022.2.5,59.733302749649454,
C,Y,z,,0,75,75,75,,,,,,,,,,,,,4923,258.30232219999743,258.4022238999969,258.61629639999956,,z,1,258.84940449999704,260.3496555999991,0.42946020000090357,,,,,,,,,,,,,861083,001,2024-05-15_18h29.13.990,nBack,2022.2.5,59.733302749649454,
Y,N,None,,0,76,76,76,,,,,,,,,,,,,4996,260.3496555999991,260.4501178999999,260.6497016999965,261.549855199999,None,1,261.549855199999,263.0497332999985,,,,,,,,,,,,,,861083,001,2024-05-15_18h29.13.990,nBack,2022.2.5,59.733302749649454,
X,N,None,,0,77,77,77,,,,,,,,,,,,,5069,263.0497332999985,263.1501242999984,263.3499480999999,264.2506538999987,None,1,264.2506538999987,265.7499536999967,,,,,,,,,,,,,,861083,001,2024-05-15_18h29.13.990,nBack,2022.2.5,59.733302749649454,
X,Y,z,,0,78,78,78,,,,,,,,,,,,,5108,265.7499536999967,265.8503847999964,266.05015579999963,,z,1,266.38293019999765,267.8830549999984,0.5153035000003001,,,,,,,,,,,,,861083,001,2024-05-15_18h29.13.990,nBack,2022.2.5,59.733302749649454,
C,N,None,,0,79,79,79,,,,,,,,,,,,,5180,267.8830549999984,267.98327749999953,268.18350909999936,,None,1,269.0834780999976,270.5833317999968,,,,,,,,,,,,,,861083,001,2024-05-15_18h29.13.990,nBack,2022.2.5,59.733302749649454,
W,N,None,,0,80,80,80,,,,,,,,,,,,,5253,270.5833317999968,270.68353119999665,270.8836260999997,271.7835250999997,None,1,271.7835250999997,273.2834838999988,,,,,,,,,,,,,,861083,001,2024-05-15_18h29.13.990,nBack,2022.2.5,59.733302749649454,
W,Y,z,,0,81,81,81,,,,,,,,,,,,,5326,273.2834838999988,273.3836945999974,273.5834360999979,274.4836295999994,None,0,274.4836295999994,,,,,,,,,,,,,,,861083,001,2024-05-15_18h29.13.990,nBack,2022.2.5,59.733302749649454,
W,Y,z,,0,82,82,82,,,,,,,,,,,,,5398,275.98403079999844,276.0684326999981,276.28350749999663,,None,0,277.1834345999996,278.6838736999998,,,,,,,,,,,,,,861083,001,2024-05-15_18h29.13.990,nBack,2022.2.5,59.733302749649454,
C,N,None,,0,83,83,83,,,,,,,,,,,,,5471,278.6838736999998,278.78355549999833,278.9834583999982,279.88369019999664,None,1,279.88369019999664,281.3839924999993,,,,,,,,,,,,,,861083,001,2024-05-15_18h29.13.990,nBack,2022.2.5,59.733302749649454,
Y,N,None,,0,84,84,84,,,,,,,,,,,,,5543,281.3839924999993,281.46714919999795,281.68404419999933,282.5702915999973,None,1,282.58415259999674,,,,,,,,,,,,,,,861083,001,2024-05-15_18h29.13.990,nBack,2022.2.5,59.733302749649454,
C,N,None,,0,85,85,85,,,,,,,,,,,,,5616,284.0837324999993,284.1694723999972,284.3842547999993,285.28384679999726,None,1,285.28384679999726,,,,,,,,,,,,,,,861083,001,2024-05-15_18h29.13.990,nBack,2022.2.5,59.733302749649454,
X,N,None,,0,86,86,86,,,,,,,,,,,,,5689,286.7841782999967,286.88416849999703,287.08406659999673,287.9852755999964,None,1,287.9852755999964,,,,,,,,,,,,,,,861083,001,2024-05-15_18h29.13.990,nBack,2022.2.5,59.733302749649454,
B,N,None,,0,87,87,87,,,,,,,,,,,,,5761,289.48395289999826,289.5680908999966,289.78417679999984,290.66815329999736,None,1,290.66815329999736,292.1689462999966,,,,,,,,,,,,,,861083,001,2024-05-15_18h29.13.990,nBack,2022.2.5,59.733302749649454,
B,Y,z,,0,88,88,88,,,,,,,,,,,,,5801,292.1689462999966,292.2690969999967,292.4842923999968,,z,1,292.81750289999763,294.3176936999989,0.530574099997466,,,,,,,,,,,,,861083,001,2024-05-15_18h29.13.990,nBack,2022.2.5,59.733302749649454,
A,N,None,,0,89,89,89,,,,,,,,,,,,,5874,294.3176936999989,294.41758649999974,294.61838069999794,295.51783839999916,None,1,295.51783839999916,297.0177335999979,,,,,,,,,,,,,,861083,001,2024-05-15_18h29.13.990,nBack,2022.2.5,59.733302749649454,
B,N,None,,0,90,90,90,,,,,,,,,,,,,5947,297.0177335999979,297.1177378999964,297.3180438999989,298.21792399999686,None,1,298.21792399999686,299.71802559999924,,,,,,,,,,,,,,861083,001,2024-05-15_18h29.13.990,nBack,2022.2.5,59.733302749649454,
V,N,None,,0,91,91,91,,,,,,,,,,,,,6020,299.71802559999924,299.81849229999716,300.01816189999954,300.9187176999985,None,1,300.9187176999985,302.41865849999886,,,,,,,,,,,,,,861083,001,2024-05-15_18h29.13.990,nBack,2022.2.5,59.733302749649454,
V,Y,z,,0,92,92,92,,,,,,,,,,,,,6052,302.41865849999886,302.5012214999988,302.7181869999986,,z,1,302.9351231999972,304.4349000999973,0.40294730000096024,,,,,,,,,,,,,861083,001,2024-05-15_18h29.13.990,nBack,2022.2.5,59.733302749649454,
B,N,None,,0,93,93,93,,,,,,,,,,,,,6125,304.4349000999973,304.5347961999978,304.7352185999989,305.6348012999988,None,1,305.6348012999988,307.1347277999994,,,,,,,,,,,,,,861083,001,2024-05-15_18h29.13.990,nBack,2022.2.5,59.733302749649454,
W,N,None,,0,94,94,94,,,,,,,,,,,,,6198,307.1347277999994,307.2347778999974,307.4347455999996,308.3350195999992,None,1,308.3350195999992,309.8349913999991,,,,,,,,,,,,,,861083,001,2024-05-15_18h29.13.990,nBack,2022.2.5,59.733302749649454,
B,N,None,,0,95,95,95,,,,,,,,,,,,,6271,309.8349913999991,309.93487189999723,310.13522849999936,311.034932999999,None,1,311.034932999999,312.5350271999996,,,,,,,,,,,,,,861083,001,2024-05-15_18h29.13.990,nBack,2022.2.5,59.733302749649454,
B,Y,z,,0,96,96,96,,,,,,,,,,,,,6300,312.5350271999996,312.63526959999945,312.83503369999744,,z,1,313.00170179999986,314.5016766999979,0.3443918999982998,,,,,,,,,,,,,861083,001,2024-05-15_18h29.13.990,nBack,2022.2.5,59.733302749649454,
Y,N,None,,0,97,97,97,,,,,,,,,,,,,6373,314.5016766999979,314.6019761999996,314.80175459999737,315.70197469999766,None,1,315.70197469999766,317.3080893999977,,,,,,,,,,,,,,861083,001,2024-05-15_18h29.13.990,nBack,2022.2.5,59.733302749649454,
B,N,None,,0,98,98,98,,,,,,,,,,,,,6440,317.3080893999977,317.3080893999977,317.61867589999747,,None,1,318.41906989999916,,,,,,,,,,,,,,,861083,001,2024-05-15_18h29.13.990,nBack,2022.2.5,59.733302749649454,
B,Y,z,,0,99,99,99,,,,,,,,,,,,,6503,319.9186187999985,319.9858546999967,320.2191959999982,,z,1,320.9524636999995,322.4523476999966,0.9378060000017285,,,,,,,,,,,,,861083,001,2024-05-15_18h29.13.990,nBack,2022.2.5,59.733302749649454,
W,N,None,,0,100,100,100,,,,,,,,,,,,,6576,322.4523476999966,322.55238149999786,322.75243469999987,323.65352019999773,None,1,323.65352019999773,,,,,,,,,,,,,,,861083,001,2024-05-15_18h29.13.990,nBack,2022.2.5,59.733302749649454,
V,N,None,,0,101,101,101,,,,,,,,,,,,,6648,325.16882469999837,325.25252309999996,325.46898339999825,326.35247649999656,None,1,326.35247649999656,327.8527140999977,,,,,,,,,,,,,,861083,001,2024-05-15_18h29.13.990,nBack,2022.2.5,59.733302749649454,
A,N,None,,0,102,102,102,,,,,,,,,,,,,6721,327.8527140999977,327.9525132999988,328.1527571999977,329.0528831999982,None,1,329.0528831999982,330.5527231999986,,,,,,,,,,,,,,861083,001,2024-05-15_18h29.13.990,nBack,2022.2.5,59.733302749649454,
A,Y,z,,0,103,103,103,,,,,,,,,,,,,6760,330.5527231999986,330.635792699999,330.8534981999983,,z,1,331.1863220999985,332.6872008999999,0.5217627000020002,,,,,,,,,,,,,861083,001,2024-05-15_18h29.13.990,nBack,2022.2.5,59.733302749649454,
X,N,None,,0,104,104,104,,,,,,,,,,,,,6833,332.6872008999999,332.7863899999975,333.0025547999976,333.8861735999999,None,1,333.8861735999999,335.38644529999874,,,,,,,,,,,,,,861083,001,2024-05-15_18h29.13.990,nBack,2022.2.5,59.733302749649454,
V,N,None,,0,105,105,105,,,,,,,,,,,,,6906,335.38644529999874,335.4863191999975,335.68623149999985,336.5862040999964,None,1,336.5862040999964,338.0863787999988,,,,,,,,,,,,,,861083,001,2024-05-15_18h29.13.990,nBack,2022.2.5,59.733302749649454,
Y,N,None,,0,106,106,106,,,,,,,,,,,,,6979,338.0863787999988,338.1863833999996,338.3866159999998,339.2869237999985,None,1,339.2869237999985,340.7863946999969,,,,,,,,,,,,,,861083,001,2024-05-15_18h29.13.990,nBack,2022.2.5,59.733302749649454,
Y,Y,z,,0,107,107,107,,,,,,,,,,,,,7003,340.7863946999969,340.8863616999988,341.086408799998,,z,1,341.1698688999968,342.6713624999975,0.25689759999659145,,,,,,,,,,,,,861083,001,2024-05-15_18h29.13.990,nBack,2022.2.5,59.733302749649454,
V,N,None,,0,108,108,108,,,,,,,,,,,,,7075,342.6713624999975,342.75350649999746,342.98671479999757,343.8531707999973,None,1,343.8531707999973,345.3531566999991,,,,,,,,,,,,,,861083,001,2024-05-15_18h29.13.990,nBack,2022.2.5,59.733302749649454,
C,N,None,,0,109,109,109,,,,,,,,,,,,,7148,345.37157919999663,345.4532556999984,345.6868205999999,346.5535312999964,None,1,346.5535312999964,348.05311869999787,,,,,,,,,,,,,,861083,001,2024-05-15_18h29.13.990,nBack,2022.2.5,59.733302749649454,
W,N,None,,0,110,110,110,,,,,,,,,,,,,7221,348.05311869999787,348.1534789999969,348.35317759999816,349.2532457999987,None,1,349.2532457999987,350.7534977999967,,,,,,,,,,,,,,861083,001,2024-05-15_18h29.13.990,nBack,2022.2.5,59.733302749649454,
X,N,None,,0,111,111,111,,,,,,,,,,,,,7294,350.7713735999969,350.85344089999853,351.0866013999985,351.9535262999998,None,1,351.9535262999998,353.4537326999998,,,,,,,,,,,,,,861083,001,2024-05-15_18h29.13.990,nBack,2022.2.5,59.733302749649454,
X,Y,z,,0,112,112,112,,,,,,,,,,,,,7320,353.4537326999998,353.55350869999893,353.7535450999967,,z,1,353.8717117999986,,0.286182199997711,,,,,,,,,,,,,861083,001,2024-05-15_18h29.13.990,nBack,2022.2.5,59.733302749649454,
Y,N,None,,0,113,113,113,,,,,,,,,,,,,7391,355.3871124999969,355.45387239999764,355.68702589999884,356.5538732999994,None,1,356.5538732999994,358.0542891999976,,,,,,,,,,,,,,861083,001,2024-05-15_18h29.13.990,nBack,2022.2.5,59.733302749649454,
X,N,None,,0,114,114,114,,,,,,,,,,,,,7464,358.0542891999976,358.15356619999875,358.35409629999776,359.2539039999974,None,1,359.2539039999974,360.75382119999995,,,,,,,,,,,,,,861083,001,2024-05-15_18h29.13.990,nBack,2022.2.5,59.733302749649454,
W,N,None,,0,115,115,115,,,,,,,,,,,,,7537,360.75382119999995,360.8541955999972,361.0537271999965,361.95386119999966,None,1,361.95386119999966,363.4538696999989,,,,,,,,,,,,,,861083,001,2024-05-15_18h29.13.990,nBack,2022.2.5,59.733302749649454,
X,N,None,,0,116,116,116,,,,,,,,,,,,,7610,363.4538696999989,363.55367019999903,363.7542089999988,364.6539012999965,None,1,364.67104969999855,366.17104499999914,,,,,,,,,,,,,,861083,001,2024-05-15_18h29.13.990,nBack,2022.2.5,59.733302749649454,
A,N,None,,0,117,117,117,,,,,,,,,,,,,7682,366.17104499999914,366.2542302999973,366.47215559999677,367.35461849999774,None,1,367.35461849999774,368.8546294999978,,,,,,,,,,,,,,861083,001,2024-05-15_18h29.13.990,nBack,2022.2.5,59.733302749649454,
B,N,None,,0,118,118,118,,,,,,,,,,,,,7755,368.8546294999978,368.9540804999997,369.1543814999968,370.05421789999673,None,1,370.05421789999673,371.55425829999876,,,,,,,,,,,,,,861083,001,2024-05-15_18h29.13.990,nBack,2022.2.5,59.733302749649454,
B,Y,z,,0,119,119,119,,,,,,,,,,,,,7789,371.55425829999876,371.65407609999966,371.85474949999843,,z,1,372.10468769999716,373.604512599999,0.4335955999995349,,,,,,,,,,,,,861083,001,2024-05-15_18h29.13.990,nBack,2022.2.5,59.733302749649454,
W,N,None,,0,120,120,120,,,,,,,,,,,,,7861,373.604512599999,373.687505599999,373.9044241999982,374.78754189999745,None,1,374.78754189999745,376.28788579999673,,,,,,,,,,,,,,861083,001,2024-05-15_18h29.13.990,nBack,2022.2.5,59.733302749649454,
X,N,None,,0,121,121,121,,,,,,,,,,,,,7935,376.3045775999999,376.40438399999766,376.60459679999985,377.5044130999995,None,1,377.5044130999995,379.0045601999991,,,,,,,,,,,,,,861083,001,2024-05-15_18h29.13.990,nBack,2022.2.5,59.733302749649454,
Y,N,None,,0,122,122,122,,,,,,,,,,,,,8008,379.0045601999991,379.1047641999976,379.3048271999978,380.2050320999988,None,1,380.2050320999988,381.70469709999816,,,,,,,,,,,,,,861083,001,2024-05-15_18h29.13.990,nBack,2022.2.5,59.733302749649454,
B,N,None,,0,123,123,123,,,,,,,,,,,,,8081,381.70469709999816,381.8054291999979,382.0047976999995,,None,1,382.92154209999717,,,,,,,,,,,,,,,861083,001,2024-05-15_18h29.13.990,nBack,2022.2.5,59.733302749649454,
A,N,None,,0,124,124,124,,,,,,,,,,,,,8152,384.4212395999966,384.4879286999967,384.7214456999973,385.5882744999981,None,1,385.6059841999995,,,,,,,,,,,,,,,861083,001,2024-05-15_18h29.13.990,nBack,2022.2.5,59.733302749649454,
X,N,None,,0,125,125,125,,,,,,,,,,,,,8224,387.1217943999982,387.2049405999969,387.4215521999977,388.30607699999746,None,1,388.30607699999746,,,,,,,,,,,,,,,861083,001,2024-05-15_18h29.13.990,nBack,2022.2.5,59.733302749649454,
V,N,None,,0,126,126,126,,,,,,,,,,,,,8295,389.821582499997,389.8880857999975,390.12280459999965,390.98814039999706,None,1,390.98814039999706,392.4888237999985,,,,,,,,,,,,,,861083,001,2024-05-15_18h29.13.990,nBack,2022.2.5,59.733302749649454,
V,Y,z,,0,127,127,127,,,,,,,,,,,,,8343,392.4888237999985,392.5885133999982,392.788405299998,,z,1,393.27184719999786,394.77177219999794,0.6532272000004014,,,,,,,,,,,,,861083,001,2024-05-15_18h29.13.990,nBack,2022.2.5,59.733302749649454,
X,N,None,,0,128,128,128,,,,,,,,,,,,,8415,394.77177219999794,394.85513139999966,395.07183339999756,395.9549921999969,None,1,395.97175279999647,397.4721764999995,,,,,,,,,,,,,,861083,001,2024-05-15_18h29.13.990,nBack,2022.2.5,59.733302749649454,
V,N,None,,0,129,129,129,,,,,,,,,,,,,8488,397.4721764999995,397.5721037999974,397.77187199999753,398.67209829999774,None,1,398.67209829999774,400.1720631999997,,,,,,,,,,,,,,861083,001,2024-05-15_18h29.13.990,nBack,2022.2.5,59.733302749649454,
V,Y,z,,0,130,130,130,,,,,,,,,,,,,8561,400.1720631999997,400.2734102999966,400.4722108999995,,None,0,401.3887874999964,,,,,,,,,,,,,,,861083,001,2024-05-15_18h29.13.990,nBack,2022.2.5,59.733302749649454,
W,N,None,,0,131,131,131,,,,,,,,,,,,,8633,402.88849969999865,402.9723834999968,403.1886394999965,404.0734538999968,None,1,404.0734538999968,,,,,,,,,,,,,,,861083,001,2024-05-15_18h29.13.990,nBack,2022.2.5,59.733302749649454,
C,N,None,,0,132,132,132,,,,,,,,,,,,,8705,405.5888039999991,405.6732641999988,405.88881089999995,,None,1,406.78894109999965,,,,,,,,,,,,,,,861083,001,2024-05-15_18h29.13.990,nBack,2022.2.5,59.733302749649454,
A,N,None,,0,133,133,133,,,,,,,,,,,,,8776,408.28918799999883,408.35553479999726,408.5890057999968,409.4562769999975,None,1,409.4562769999975,410.95569629999954,,,,,,,,,,,,,,861083,001,2024-05-15_18h29.13.990,nBack,2022.2.5,59.733302749649454,
V,N,None,,0,134,134,134,,,,,,,,,,,,,8849,410.95569629999954,411.05610519999755,411.2556702999973,412.15590489999886,None,1,412.15590489999886,413.65594249999776,,,,,,,,,,,,,,861083,001,2024-05-15_18h29.13.990,nBack,2022.2.5,59.733302749649454,
A,N,None,,0,135,135,135,,,,,,,,,,,,,8922,413.65594249999776,413.75583709999773,413.95578849999947,414.8558606999977,None,1,414.8558606999977,416.3562079999974,,,,,,,,,,,,,,861083,001,2024-05-15_18h29.13.990,nBack,2022.2.5,59.733302749649454,
A,Y,z,,0,136,136,136,,,,,,,,,,,,,8959,416.3562079999974,416.45601629999874,416.65589409999666,,z,1,416.9559792,418.45643589999963,0.4771714999988035,,,,,,,,,,,,,861083,001,2024-05-15_18h29.13.990,nBack,2022.2.5,59.733302749649454,
A,Y,z,,0,137,137,137,,,,,,,,,,,,,9032,418.45643589999963,418.55634259999715,418.7559751999979,419.6560980999966,None,0,419.6560980999966,421.1562303999999,,,,,,,,,,,,,,861083,001,2024-05-15_18h29.13.990,nBack,2022.2.5,59.733302749649454,
C,N,None,,0,138,138,138,,,,,,,,,,,,,9104,421.1562303999999,421.239573699997,421.4562578999976,422.3397327999992,None,1,422.3568388999993,423.8563845999997,,,,,,,,,,,,,,861083,001,2024-05-15_18h29.13.990,nBack,2022.2.5,59.733302749649454,
W,N,None,,0,139,139,139,,,,,,,,,,,,,9177,423.8563845999997,423.95625279999877,424.15658359999725,425.05697169999985,None,1,425.05697169999985,426.5564465999996,,,,,,,,,,,,,,861083,001,2024-05-15_18h29.13.990,nBack,2022.2.5,59.733302749649454,
W,Y,z,,0,140,140,140,,,,,,,,,,,,,9218,426.5564465999996,426.65628789999755,426.8568431999993,,z,1,427.22317609999664,428.72318639999867,0.5373957000010705,,,,,,,,,,,,,861083,001,2024-05-15_18h29.13.990,nBack,2022.2.5,59.733302749649454,
B,N,None,,0,141,141,141,,,,,,,,,,,,,9291,428.72318639999867,428.82310159999906,429.0231086999993,429.92328559999805,None,1,429.92328559999805,431.42583249999734,,,,,,,,,,,,,,861083,001,2024-05-15_18h29.13.990,nBack,2022.2.5,59.733302749649454,
C,N,None,,0,142,142,142,,,,,,,,,,,,,9363,431.42583249999734,431.50680269999793,431.74022219999824,432.6068381999976,None,1,432.6068381999976,434.10709289999795,,,,,,,,,,,,,,861083,001,2024-05-15_18h29.13.990,nBack,2022.2.5,59.733302749649454,
X,N,None,,0,143,143,143,,,,,,,,,,,,,9437,434.12338909999744,434.2234103999981,434.4238442999995,435.3263930999965,None,1,435.3263930999965,,,,,,,,,,,,,,,861083,001,2024-05-15_18h29.13.990,nBack,2022.2.5,59.733302749649454,
Y,N,None,,0,144,144,144,,,,,,,,,,,,,9509,436.84044789999825,436.9254080999999,437.14034889999675,,None,1,438.0403346999992,,,,,,,,,,,,,,,861083,001,2024-05-15_18h29.13.990,nBack,2022.2.5,59.733302749649454,
Y,Y,z,,0,145,145,145,,,,,,,,,,,,,9581,439.5235537999979,439.60691099999895,439.8260956999984,440.7070554999991,None,0,440.7070554999991,442.20708209999793,,,,,,,,,,,,,,861083,001,2024-05-15_18h29.13.990,nBack,2022.2.5,59.733302749649454,
C,N,None,,0,146,146,146,,,,,,,,,,,,,9654,442.20708209999793,442.3079366999991,442.50733809999656,443.40739699999904,None,1,443.40739699999904,444.9072078999998,,,,,,,,,,,,,,861083,001,2024-05-15_18h29.13.990,nBack,2022.2.5,59.733302749649454,
,,,,,,,,,,,,,,,,,,,,,,,,,,,,,,444.9072078999998,446.9089021999971,z,34.552775800002564,,,,,,,,,861083,001,2024-05-15_18h29.13.990,nBack,2022.2.5,59.733302749649454,
,None,None,V,,,,,0,0,0,0,,,,,,,,,9726,,,,,,,482.6757585999985,484.17522409999947,,,,,,481.50310909999826,481.57536919999984,481.80864019999717,482.6757585999985,None,1,,,861083,001,2024-05-15_18h29.13.990,nBack,2022.2.5,59.733302749649454,
,None,None,W,,,,,0,1,1,1,,,,,,,,,9799,,,,,,,485.375429599997,486.8754952999989,,,,,,484.17522409999947,484.2753763999972,484.4757920999982,485.375429599997,None,1,,,861083,001,2024-05-15_18h29.13.990,nBack,2022.2.5,59.733302749649454,
,N,None,X,,,,,0,2,2,2,,,,,,,,,9872,,,,,,,488.0757104999975,489.5755806999987,,,,,,486.8754952999989,486.97542279999834,487.1756351999975,488.0757104999975,None,1,,,861083,001,2024-05-15_18h29.13.990,nBack,2022.2.5,59.733302749649454,
,Y,z,W,,,,,0,3,3,3,,,,,,,,,9903,,,,,,,490.0761520999986,491.57581599999685,,,,,,489.5755806999987,489.6758501999975,489.8762397999999,,z,1,0.3718418999997084,,861083,001,2024-05-15_18h29.13.990,nBack,2022.2.5,59.733302749649454,
,N,None,V,,,,,0,4,4,4,,,,,,,,,9976,,,,,,,492.7758346999981,494.2757120999995,,,,,,491.57581599999685,491.6760015,491.8760368999974,492.7758346999981,None,1,,,861083,001,2024-05-15_18h29.13.990,nBack,2022.2.5,59.733302749649454,
,N,None,Y,,,,,0,5,5,5,,,,,,,,,10049,,,,,,,495.47596639999756,496.97613849999834,,,,,,494.2757120999995,494.375950499998,494.5760629999968,495.47596639999756,None,1,,,861083,001,2024-05-15_18h29.13.990,nBack,2022.2.5,59.733302749649454,
,N,None,C,,,,,0,6,6,6,,,,,,,,,10122,,,,,,,498.1765443999975,499.6762830999978,,,,,,496.97613849999834,497.0764519999975,497.27611449999677,498.1765443999975,None,1,,,861083,001,2024-05-15_18h29.13.990,nBack,2022.2.5,59.733302749649454,
,Y,z,Y,,,,,0,7,7,7,,,,,,,,,10156,,,,,,,500.22667349999756,501.7263303999971,,,,,,499.6762830999978,499.77603389999786,499.9762071999976,,z,1,0.42366759999640635,,861083,001,2024-05-15_18h29.13.990,nBack,2022.2.5,59.733302749649454,
,Y,z,C,,,,,0,8,8,8,,,,,,,,,10229,,,,,,,502.9273721999998,,,,,,,501.7263303999971,501.8269057999969,502.0261931999994,502.9273721999998,None,0,,,861083,001,2024-05-15_18h29.13.990,nBack,2022.2.5,59.733302749649454,
,N,None,B ,,,,,0,9,9,9,,,,,,,,,10300,,,,,,,505.6096804999979,507.11032339999656,,,,,,504.4429737999999,504.5096526999987,504.74317379999775,505.6096804999979,None,1,,,861083,001,2024-05-15_18h29.13.990,nBack,2022.2.5,59.733302749649454,
,N,None,Y,,,,,0,10,10,10,,,,,,,,,10374,,,,,,,508.3267535999985,509.82670789999975,,,,,,507.12638629999856,507.22686559999784,507.4264824999991,508.3267535999985,None,1,,,861083,001,2024-05-15_18h29.13.990,nBack,2022.2.5,59.733302749649454,
,N,None,B,,,,,0,11,11,11,,,,,,,,,10398,,,,,,,510.2100946999999,511.7101694999983,,,,,,509.82670789999975,509.909893,510.12711529999797,,z,0,0.2698432999968645,,861083,001,2024-05-15_18h29.13.990,nBack,2022.2.5,59.733302749649454,
,Y,z,Y,,,,,0,12,12,12,,,,,,,,,10470,,,,,,,512.9100497999971,514.4100671999986,,,,,,511.7101694999983,511.80998399999953,512.0098807999966,,None,0,,,861083,001,2024-05-15_18h29.13.990,nBack,2022.2.5,59.733302749649454,
,N,None,C,,,,,0,13,13,13,,,,,,,,,10543,,,,,,,515.6101447999972,517.1102882999985,,,,,,514.4100671999986,514.5102352999966,514.7103002999975,515.6101447999972,None,1,,,861083,001,2024-05-15_18h29.13.990,nBack,2022.2.5,59.733302749649454,
,N,None,W,,,,,0,14,14,14,,,,,,,,,10615,,,,,,,518.2945028999966,519.7938885999974,,,,,,517.1102882999985,517.1939397999995,517.410463799999,518.2945028999966,None,1,,,861083,001,2024-05-15_18h29.13.990,nBack,2022.2.5,59.733302749649454,
,N,None,A,,,,,0,15,15,15,,,,,,,,,10688,,,,,,,520.9938534999965,522.4938933999983,,,,,,519.7938885999974,519.8938327999967,520.094156799998,520.9938534999965,None,1,,,861083,001,2024-05-15_18h29.13.990,nBack,2022.2.5,59.733302749649454,
,Y,z,W,,,,,0,16,16,16,,,,,,,,,10713,,,,,,,522.894765699999,,,,,,,522.4938933999983,522.5945748999984,522.7939652999994,,z,1,0.2690805000020191,,861083,001,2024-05-15_18h29.13.990,nBack,2022.2.5,59.733302749649454,
,N,None,B,,,,,0,17,17,17,,,,,,,,,10786,,,,,,,525.5942170999988,527.0939471999991,,,,,,524.3942214999988,524.4941306999972,524.6939639999982,525.5942170999988,None,1,,,861083,001,2024-05-15_18h29.13.990,nBack,2022.2.5,59.733302749649454,
,Y,z,W,,,,,0,18,18,18,,,,,,,,,10859,,,,,,,528.2940287999991,529.7944149999967,,,,,,527.0939471999991,527.1941294999997,527.394182,528.2940287999991,None,0,,,861083,001,2024-05-15_18h29.13.990,nBack,2022.2.5,59.733302749649454,
,N,None,V,,,,,0,19,19,19,,,,,,,,,10932,,,,,,,531.0105714999991,,,,,,,529.7944149999967,529.8950975999978,530.0940483999984,,None,1,,,861083,001,2024-05-15_18h29.13.990,nBack,2022.2.5,59.733302749649454,
,Y,z,W,,,,,0,20,20,20,,,,,,,,,10955,,,,,,,532.8798091999997,,,,,,,532.5108672999995,532.5953706999971,532.8107770999995,,z,1,0.2643279000003531,,861083,001,2024-05-15_18h29.13.990,nBack,2022.2.5,59.733302749649454,
,N,None,X,,,,,0,21,21,21,,,,,,,,,11026,,,,,,,535.5614487999992,537.0613352999972,,,,,,534.3951553999977,534.4612430999987,534.6947854999999,535.5614487999992,None,1,,,861083,001,2024-05-15_18h29.13.990,nBack,2022.2.5,59.733302749649454,
,Y,z,W,,,,,0,22,22,22,,,,,,,,,11100,,,,,,,538.2775855,539.7776767999967,,,,,,537.0776452999999,537.1621864999979,537.3798420999992,538.2775855,None,0,,,861083,001,2024-05-15_18h29.13.990,nBack,2022.2.5,59.733302749649454,
,N,None,A,,,,,0,23,23,23,,,,,,,,,11173,,,,,,,540.9797881999984,,,,,,,539.7776767999967,539.8776988999998,540.0798537999981,540.9797881999984,None,1,,,861083,001,2024-05-15_18h29.13.990,nBack,2022.2.5,59.733302749649454,
,N,None,X,,,,,0,24,24,24,,,,,,,,,11217,,,,,,,543.212509099998,544.7133254999972,,,,,,542.494699699997,542.5613488999988,542.7948228999994,,z,0,0.6283180999998876,,861083,001,2024-05-15_18h29.13.990,nBack,2022.2.5,59.733302749649454,
,N,None,V,,,,,0,25,25,25,,,,,,,,,11289,,,,,,,545.8952348999992,547.3947252999969,,,,,,544.7133254999972,544.7946751999989,545.0283354999992,545.8952348999992,None,1,,,861083,001,2024-05-15_18h29.13.990,nBack,2022.2.5,59.733302749649454,
,N,None,W,,,,,0,26,26,26,,,,,,,,,11363,,,,,,,548.6285369999969,,,,,,,547.3947252999969,547.5128469999981,547.6952417999964,,None,1,,,861083,001,2024-05-15_18h29.13.990,nBack,2022.2.5,59.733302749649454,
,N,None,A,,,,,0,27,27,27,,,,,,,,,11434,,,,,,,551.2950461999972,552.7948370999984,,,,,,550.1284334999982,550.1948730999975,550.4283453999997,551.2950461999972,None,1,,,861083,001,2024-05-15_18h29.13.990,nBack,2022.2.5,59.733302749649454,
,N,None,X,,,,,0,28,28,28,,,,,,,,,11507,,,,,,,554.0136439999987,,,,,,,552.7948370999984,552.8950712999977,553.0948639999988,553.9949140999997,None,1,,,861083,001,2024-05-15_18h29.13.990,nBack,2022.2.5,59.733302749649454,
,N,None,V,,,,,0,29,29,29,,,,,,,,,11578,,,,,,,556.6955173999995,558.1955299999972,,,,,,555.5283729999974,555.5952184999987,555.828514599998,556.6955173999995,None,1,,,861083,001,2024-05-15_18h29.13.990,nBack,2022.2.5,59.733302749649454,
,Y,z,X,,,,,0,30,30,30,,,,,,,,,11651,,,,,,,559.3951648999973,560.8952775999969,,,,,,558.1955299999972,558.2952256999997,558.4951051999997,559.3951648999973,None,0,,,861083,001,2024-05-15_18h29.13.990,nBack,2022.2.5,59.733302749649454,
,N,None,A,,,,,0,31,31,31,,,,,,,,,11724,,,,,,,562.0962432999986,563.6124960999987,,,,,,560.8952775999969,560.995705399997,561.1956440999966,562.0962432999986,None,1,,,861083,001,2024-05-15_18h29.13.990,nBack,2022.2.5,59.733302749649454,
,N,None,V,,,,,0,32,32,32,,,,,,,,,11797,,,,,,,564.813286499997,,,,,,,563.6124960999987,563.6962111999965,563.9121715999972,564.813286499997,None,1,,,861083,001,2024-05-15_18h29.13.990,nBack,2022.2.5,59.733302749649454,
,Y,z,A,,,,,0,33,33,33,,,,,,,,,11819,,,,,,,566.6800838999989,,,,,,,566.3291368999999,566.3955623999973,566.6291562999977,,z,1,0.25451520000206074,,861083,001,2024-05-15_18h29.13.990,nBack,2022.2.5,59.733302749649454,
,N,None,C,,,,,0,34,34,34,,,,,,,,,11890,,,,,,,569.3626331999985,570.8625034999968,,,,,,568.1954708999983,568.2626614999972,568.4955037,569.3626331999985,None,1,,,861083,001,2024-05-15_18h29.13.990,nBack,2022.2.5,59.733302749649454,
,N,None,X,,,,,0,35,35,35,,,,,,,,,11963,,,,,,,572.0792920999993,573.5797084999977,,,,,,570.8625034999968,570.9626105999996,571.1624047999976,572.062302899998,None,1,,,861083,001,2024-05-15_18h29.13.990,nBack,2022.2.5,59.733302749649454,
,N,None,A,,,,,0,36,36,36,,,,,,,,,12013,,,,,,,574.395775099998,575.8958205999988,,,,,,573.5797084999977,573.6625396999989,573.880677899997,,z,0,0.710942999998224,,861083,001,2024-05-15_18h29.13.990,nBack,2022.2.5,59.733302749649454,
,N,None,B,,,,,0,37,37,37,,,,,,,,,12086,,,,,,,577.0962158999973,578.5962553999998,,,,,,575.8958205999988,575.9961043999974,576.195763599997,577.0962158999973,None,1,,,861083,001,2024-05-15_18h29.13.990,nBack,2022.2.5,59.733302749649454,
,Y,z,A,,,,,0,38,38,38,,,,,,,,,12159,,,,,,,579.8132874999974,,,,,,,578.5962553999998,578.697168499999,578.8962692999994,,None,0,,,861083,001,2024-05-15_18h29.13.990,nBack,2022.2.5,59.733302749649454,
,Y,z,B,,,,,0,39,39,39,,,,,,,,,12180,,,,,,,581.6463990999982,583.146313199999,,,,,,581.3130091999992,581.3961155999968,581.6138439999995,,z,1,0.23137839999981225,,861083,001,2024-05-15_18h29.13.990,nBack,2022.2.5,59.733302749649454,
,N,None,C,,,,,0,40,40,40,,,,,,,,,12252,,,,,,,584.3464905999972,585.8471576999982,,,,,,583.146313199999,583.2467704999981,583.446143899997,,None,1,,,861083,001,2024-05-15_18h29.13.990,nBack,2022.2.5,59.733302749649454,
,Y,z,B,,,,,0,41,41,41,,,,,,,,,12324,,,,,,,587.0470154999966,588.5465428999996,,,,,,585.8471576999982,585.946552399997,586.1465960999994,,None,0,,,861083,001,2024-05-15_18h29.13.990,nBack,2022.2.5,59.733302749649454,
,N,None,A,,,,,0,42,42,42,,,,,,,,,12397,,,,,,,589.7465238999976,591.2466851999998,,,,,,588.5465428999996,588.6469707999968,588.8468189999985,589.7465238999976,None,1,,,861083,001,2024-05-15_18h29.13.990,nBack,2022.2.5,59.733302749649454,
,N,None,W,,,,,0,43,43,43,,,,,,,,,12469,,,,,,,592.4472590999976,593.9468344999987,,,,,,591.2466851999998,591.3300723999964,591.5468403999985,592.4300524999999,None,1,,,861083,001,2024-05-15_18h29.13.990,nBack,2022.2.5,59.733302749649454,
,N,None,B ,,,,,0,44,44,44,,,,,,,,,12542,,,,,,,595.1481910999973,,,,,,,593.9468344999987,594.0471494999983,594.2472433999974,595.1481910999973,None,1,,,861083,001,2024-05-15_18h29.13.990,nBack,2022.2.5,59.733302749649454,
,Y,z,W,,,,,0,45,45,45,,,,,,,,,12614,,,,,,,597.8468646999972,599.3468365999979,,,,,,596.6634325999985,596.7468448999971,596.9636485999981,597.8468646999972,None,0,,,861083,001,2024-05-15_18h29.13.990,nBack,2022.2.5,59.733302749649454,
,Y,z,B ,,,,,0,46,46,46,,,,,,,,,12654,,,,,,,599.9969695,601.4970461999983,,,,,,599.3468365999979,599.4302641999966,599.6469151999991,,z,1,0.5477403000004415,,861083,001,2024-05-15_18h29.13.990,nBack,2022.2.5,59.733302749649454,
,N,None,A,,,,,0,47,47,47,,,,,,,,,12727,,,,,,,602.697243999999,604.1974130999988,,,,,,601.4970461999983,601.597167099997,601.7969045999998,602.697243999999,None,1,,,861083,001,2024-05-15_18h29.13.990,nBack,2022.2.5,59.733302749649454,
,N,None,A,,,,,0,48,48,48,,,,,,,,,12800,,,,,,,605.3972549999999,606.897623599998,,,,,,604.1974130999988,604.2972667999966,604.4971165999996,605.3972549999999,None,1,,,861083,001,2024-05-15_18h29.13.990,nBack,2022.2.5,59.733302749649454,
,N,None,W,,,,,0,49,49,49,,,,,,,,,12873,,,,,,,608.0975188999982,609.5974354999998,,,,,,606.897623599998,606.9973150999976,607.197349799997,608.0975188999982,None,1,,,861083,001,2024-05-15_18h29.13.990,nBack,2022.2.5,59.733302749649454,
,Y,z,A,,,,,0,50,50,50,,,,,,,,,12894,,,,,,,609.9305100999991,611.4308070999978,,,,,,609.5974354999998,609.6976380999986,609.8974327999967,,z,1,0.2103343999988283,,861083,001,2024-05-15_18h29.13.990,nBack,2022.2.5,59.733302749649454,
,Y,z,W,,,,,0,51,51,51,,,,,,,,,12967,,,,,,,612.6308456999977,614.1310637999995,,,,,,611.4308070999978,611.5306983999981,611.7307655999975,612.6308456999977,None,0,,,861083,001,2024-05-15_18h29.13.990,nBack,2022.2.5,59.733302749649454,
,N,None,V,,,,,0,52,52,52,,,,,,,,,13040,,,,,,,615.3310382999989,616.8313294999971,,,,,,614.1310637999995,614.2308073999993,614.4311793999987,615.3310382999989,None,1,,,861083,001,2024-05-15_18h29.13.990,nBack,2022.2.5,59.733302749649454,
,N,None,B,,,,,0,53,53,53,,,,,,,,,13113,,,,,,,618.031105799997,619.5311478999974,,,,,,616.8313294999971,616.9309175999988,617.1311175999981,618.031105799997,None,1,,,861083,001,2024-05-15_18h29.13.990,nBack,2022.2.5,59.733302749649454,
,N,None,Y,,,,,0,54,54,54,,,,,,,,,13186,,,,,,,620.7311441999991,622.2312736999993,,,,,,619.5311478999974,619.6312173999977,619.8314528999981,620.7311441999991,None,1,,,861083,001,2024-05-15_18h29.13.990,nBack,2022.2.5,59.733302749649454,
,N,None,Y,,,,,0,55,55,55,,,,,,,,,13248,,,,,,,623.248401599998,624.7482280999975,,,,,,622.2312736999993,622.3317294999979,622.5321236999989,,z,0,0.8982314999993832,,861083,001,2024-05-15_18h29.13.990,nBack,2022.2.5,59.733302749649454,
,N,None,V,,,,,0,56,56,56,,,,,,,,,13321,,,,,,,625.9482101999965,627.4487137999968,,,,,,624.7482280999975,624.8481802999995,625.0482978,625.9482101999965,None,1,,,861083,001,2024-05-15_18h29.13.990,nBack,2022.2.5,59.733302749649454,
,N,None,V,,,,,0,57,57,57,,,,,,,,,13394,,,,,,,628.6483465999991,630.148255199998,,,,,,627.4487137999968,627.5483203999975,627.7487754999966,628.6483465999991,None,1,,,861083,001,2024-05-15_18h29.13.990,nBack,2022.2.5,59.733302749649454,
,Y,z,V,,,,,0,58,58,58,,,,,,,,,13467,,,,,,,631.3483150999964,632.8484219999991,,,,,,630.148255199998,630.2485154999995,630.4484886999999,631.3483150999964,None,0,,,861083,001,2024-05-15_18h29.13.990,nBack,2022.2.5,59.733302749649454,
,N,None,A,,,,,0,59,59,59,,,,,,,,,13539,,,,,,,634.0482506999979,,,,,,,632.8484219999991,632.9482535999996,633.1493030999991,,None,1,,,861083,001,2024-05-15_18h29.13.990,nBack,2022.2.5,59.733302749649454,
,N,None,B,,,,,0,60,60,60,,,,,,,,,13612,,,,,,,636.7487035999984,638.248692899997,,,,,,635.5487588999968,635.6486643999997,635.8499426999988,636.7487035999984,None,1,,,861083,001,2024-05-15_18h29.13.990,nBack,2022.2.5,59.733302749649454,
,Y,z,A,,,,,0,61,61,61,,,,,,,,,13685,,,,,,,639.4495744999986,,,,,,,638.248692899997,638.3491563999996,638.5486781,639.4495744999986,None,0,,,861083,001,2024-05-15_18h29.13.990,nBack,2022.2.5,59.733302749649454,
,Y,z,B,,,,,0,62,62,62,,,,,,,,,13710,,,,,,,641.3491501999997,642.8494581999985,,,,,,640.9490537999991,641.0494669,641.2488960999981,,z,1,0.27791419999994105,,861083,001,2024-05-15_18h29.13.990,nBack,2022.2.5,59.733302749649454,
,Y,z,A,,,,,0,63,63,63,,,,,,,,,13783,,,,,,,644.0488790999989,645.5488621999975,,,,,,642.8494581999985,642.9487520999974,643.1492935999995,644.0488790999989,None,0,,,861083,001,2024-05-15_18h29.13.990,nBack,2022.2.5,59.733302749649454,
,Y,z,B,,,,,0,64,64,64,,,,,,,,,13856,,,,,,,646.749198999998,648.2489922999994,,,,,,645.5488621999975,645.6489235999979,645.8496451999999,646.749198999998,None,0,,,861083,001,2024-05-15_18h29.13.990,nBack,2022.2.5,59.733302749649454,
,N,None,C,,,,,0,65,65,65,,,,,,,,,13929,,,,,,,649.4490662999997,650.9491884999989,,,,,,648.2489922999994,648.3490253999989,648.5490760999965,649.4490662999997,None,1,,,861083,001,2024-05-15_18h29.13.990,nBack,2022.2.5,59.733302749649454,
,N,None,V,,,,,0,66,66,66,,,,,,,,,14002,,,,,,,652.1494918999997,653.6500299999971,,,,,,650.9491884999989,651.0493151999981,651.2503187999973,652.1494918999997,None,1,,,861083,001,2024-05-15_18h29.13.990,nBack,2022.2.5,59.733302749649454,
,N,None,W,,,,,0,67,67,67,,,,,,,,,14075,,,,,,,654.8495351999991,656.3495132999997,,,,,,653.6500299999971,653.7491348999974,653.9491296999986,654.8495351999991,None,1,,,861083,001,2024-05-15_18h29.13.990,nBack,2022.2.5,59.733302749649454,
,N,None,W,,,,,0,68,68,68,,,,,,,,,14148,,,,,,,657.5496736999994,659.0497473999967,,,,,,656.3495132999997,656.4495320999995,656.6500846999988,657.5496736999994,None,1,,,861083,001,2024-05-15_18h29.13.990,nBack,2022.2.5,59.733302749649454,
,Y,z,W,,,,,0,69,69,69,,,,,,,,,14221,,,,,,,660.2495437999969,661.7503567999993,,,,,,659.0497473999967,659.1499460999985,659.3494658999989,660.2495437999969,None,0,,,861083,001,2024-05-15_18h29.13.990,nBack,2022.2.5,59.733302749649454,
,N,None,A,,,,,0,70,70,70,,,,,,,,,14294,,,,,,,662.9496034999975,664.4500431999986,,,,,,661.7503567999993,661.8500884999994,662.0493782999984,662.9496034999975,None,1,,,861083,001,2024-05-15_18h29.13.990,nBack,2022.2.5,59.733302749649454,
,Y,z,W,,,,,0,71,71,71,,,,,,,,,14319,,,,,,,664.8495675999984,666.3495888999969,,,,,,664.4500431999986,664.5497561999982,664.7497535999973,,z,1,0.26802239999960875,,861083,001,2024-05-15_18h29.13.990,nBack,2022.2.5,59.733302749649454,
,Y,z,A,,,,,0,72,72,72,,,,,,,,,14392,,,,,,,667.5498954999966,669.0497437999984,,,,,,666.3495888999969,666.4495904999967,666.6495620999995,667.5498954999966,None,0,,,861083,001,2024-05-15_18h29.13.990,nBack,2022.2.5,59.733302749649454,
,N,None,X,,,,,0,73,73,73,,,,,,,,,14465,,,,,,,670.2498966999992,671.751414899998,,,,,,669.0497437999984,669.1499477999969,669.3499149999989,670.2498966999992,None,1,,,861083,001,2024-05-15_18h29.13.990,nBack,2022.2.5,59.733302749649454,
,N,None,Y,,,,,0,74,74,74,,,,,,,,,14538,,,,,,,672.9500227999997,674.4507808999988,,,,,,671.751414899998,671.8503068999999,672.0501093999992,672.9500227999997,None,1,,,861083,001,2024-05-15_18h29.13.990,nBack,2022.2.5,59.733302749649454,
,N,None,C,,,,,0,75,75,75,,,,,,,,,14611,,,,,,,675.6499608999984,677.1502972999988,,,,,,674.4507808999988,674.5500536999971,674.7671597999979,675.6499608999984,None,1,,,861083,001,2024-05-15_18h29.13.990,nBack,2022.2.5,59.733302749649454,
,N,None,X,,,,,0,76,76,76,,,,,,,,,14684,,,,,,,678.3500573999991,679.8501090999998,,,,,,677.1502972999988,677.2503699999979,677.4500087999986,678.3500573999991,None,1,,,861083,001,2024-05-15_18h29.13.990,nBack,2022.2.5,59.733302749649454,
,N,None,B,,,,,0,77,77,77,,,,,,,,,14757,,,,,,,681.0506767999977,682.5501818999983,,,,,,679.8501090999998,679.9502863999987,680.1506397999983,681.0506767999977,None,1,,,861083,001,2024-05-15_18h29.13.990,nBack,2022.2.5,59.733302749649454,
,Y,z,X,,,,,0,78,78,78,,,,,,,,,14813,,,,,,,683.4671481999976,684.9672029999965,,,,,,682.5501818999983,682.650195299997,682.8506375999968,,z,1,0.7995527999992191,,861083,001,2024-05-15_18h29.13.990,nBack,2022.2.5,59.733302749649454,
,Y,z,B,,,,,0,79,79,79,,,,,,,,,14885,,,,,,,686.1506475999995,687.6505869999964,,,,,,684.9672029999965,685.0505037999974,685.2675194999974,686.1506475999995,None,0,,,861083,001,2024-05-15_18h29.13.990,nBack,2022.2.5,59.733302749649454,
,N,None,B,,,,,0,80,80,80,,,,,,,,,14959,,,,,,,688.8673969999982,690.3678894999975,,,,,,687.6505869999964,687.7674340999984,687.9505638999981,688.8673969999982,None,1,,,861083,001,2024-05-15_18h29.13.990,nBack,2022.2.5,59.733302749649454,
,N,None,V,,,,,0,81,81,81,,,,,,,,,15032,,,,,,,691.5679716999985,693.0689707999991,,,,,,690.3678894999975,690.467991999998,690.6679986999989,691.5679716999985,None,1,,,861083,001,2024-05-15_18h29.13.990,nBack,2022.2.5,59.733302749649454,
,Y,z,B,,,,,0,82,82,82,,,,,,,,,15104,,,,,,,694.2509774999999,695.7507636999981,,,,,,693.0689707999991,693.1506455999988,693.3841500999988,694.2509774999999,None,0,,,861083,001,2024-05-15_18h29.13.990,nBack,2022.2.5,59.733302749649454,
,N,None,C,,,,,0,83,83,83,,,,,,,,,15177,,,,,,,696.9507987999968,698.4511305999986,,,,,,695.7507636999981,695.8510317999971,696.0507373999972,696.9507987999968,None,1,,,861083,001,2024-05-15_18h29.13.990,nBack,2022.2.5,59.733302749649454,
,N,None,Y,,,,,0,84,84,84,,,,,,,,,15250,,,,,,,699.6511651999972,701.1513268999988,,,,,,698.4511305999986,698.5510730999995,698.7511048999986,699.6511651999972,None,1,,,861083,001,2024-05-15_18h29.13.990,nBack,2022.2.5,59.733302749649454,
,Y,z,C,,,,,0,85,85,85,,,,,,,,,15273,,,,,,,701.5176519999986,703.0177898999973,,,,,,701.1513268999988,701.2511068999993,701.451341699998,,z,1,0.24076619999686955,,861083,001,2024-05-15_18h29.13.990,nBack,2022.2.5,59.733302749649454,
,N,None,B,,,,,0,86,86,86,,,,,,,,,15346,,,,,,,704.2180477999973,705.7182339999999,,,,,,703.0177898999973,703.1177995999969,703.3179121999965,704.2180477999973,None,1,,,861083,001,2024-05-15_18h29.13.990,nBack,2022.2.5,59.733302749649454,
,N,None,X,,,,,0,87,87,87,,,,,,,,,15419,,,,,,,706.9180964999978,708.4180773999979,,,,,,705.7182339999999,705.8180070999988,706.0179685999974,706.9180964999978,None,1,,,861083,001,2024-05-15_18h29.13.990,nBack,2022.2.5,59.733302749649454,
,Y,z,B,,,,,0,88,88,88,,,,,,,,,15444,,,,,,,708.8181760999978,710.3183318999982,,,,,,708.4180773999979,708.5181131999998,708.718122899998,,z,1,0.2677055999993172,,861083,001,2024-05-15_18h29.13.990,nBack,2022.2.5,59.733302749649454,
,N,None,C,,,,,0,89,89,89,,,,,,,,,15517,,,,,,,711.5184998999976,,,,,,,710.3183318999982,710.4182324999965,710.6189326999993,711.5184998999976,None,1,,,861083,001,2024-05-15_18h29.13.990,nBack,2022.2.5,59.733302749649454,
,N,None,Y,,,,,0,90,90,90,,,,,,,,,15590,,,,,,,714.2182257999993,715.7187866999993,,,,,,713.0184006999989,713.1182714999995,713.3188859999973,714.2182257999993,None,1,,,861083,001,2024-05-15_18h29.13.990,nBack,2022.2.5,59.733302749649454,
,N,None,Y,,,,,0,91,91,91,,,,,,,,,15663,,,,,,,716.9186465999992,718.4183526999986,,,,,,715.7187866999993,715.8182977999968,716.0187665999983,716.9186465999992,None,1,,,861083,001,2024-05-15_18h29.13.990,nBack,2022.2.5,59.733302749649454,
,N,None,C,,,,,0,92,92,92,,,,,,,,,15735,,,,,,,719.6186712999988,721.1186570999998,,,,,,718.4183526999986,718.5184130999987,718.7183925999998,,None,1,,,861083,001,2024-05-15_18h29.13.990,nBack,2022.2.5,59.733302749649454,
,N,None,W,,,,,0,93,93,93,,,,,,,,,15808,,,,,,,722.3187489999982,723.8189145999968,,,,,,721.1186570999998,721.2186061999964,721.4186048999982,722.3187489999982,None,1,,,861083,001,2024-05-15_18h29.13.990,nBack,2022.2.5,59.733302749649454,
,N,None,X,,,,,0,94,94,94,,,,,,,,,15881,,,,,,,725.0191388999992,726.5189145999975,,,,,,723.8189145999968,723.9185539999999,724.1189773999977,725.0191388999992,None,1,,,861083,001,2024-05-15_18h29.13.990,nBack,2022.2.5,59.733302749649454,
,N,None,V,,,,,0,95,95,95,,,,,,,,,15954,,,,,,,727.7191134999994,729.2191725999983,,,,,,726.5189145999975,726.618753499999,726.8187416999972,727.7191134999994,None,1,,,861083,001,2024-05-15_18h29.13.990,nBack,2022.2.5,59.733302749649454,
,N,None,C,,,,,0,96,96,96,,,,,,,,,16026,,,,,,,730.4028216999977,731.9028556999983,,,,,,729.2191725999983,729.3026495999984,729.5191169999998,730.4028216999977,None,1,,,861083,001,2024-05-15_18h29.13.990,nBack,2022.2.5,59.733302749649454,
,N,None,B,,,,,0,97,97,97,,,,,,,,,16100,,,,,,,733.1190687999988,734.6192596999972,,,,,,731.9028556999983,732.0198063999997,732.2036446999991,733.1190687999988,None,1,,,861083,001,2024-05-15_18h29.13.990,nBack,2022.2.5,59.733302749649454,
,Y,z,C,,,,,0,98,98,98,,,,,,,,,16123,,,,,,,734.9858512999999,736.485940999999,,,,,,734.6192596999972,734.7028359999968,734.9192678,,z,1,0.255101900002046,,861083,001,2024-05-15_18h29.13.990,nBack,2022.2.5,59.733302749649454,
,N,None,C,,,,,0,99,99,99,,,,,,,,,16196,,,,,,,737.6861370999977,739.1884019999998,,,,,,736.485940999999,736.5864511999971,736.7859407999968,737.6861370999977,None,1,,,861083,001,2024-05-15_18h29.13.990,nBack,2022.2.5,59.733302749649454,
,N,None,X,,,,,0,100,100,100,,,,,,,,,16269,,,,,,,740.3862724999999,741.8879578999986,,,,,,739.1884019999998,739.2861772999968,739.5030599999991,740.3862724999999,None,1,,,861083,001,2024-05-15_18h29.13.990,nBack,2022.2.5,59.733302749649454,
,Y,z,C,,,,,0,101,101,101,,,,,,,,,16341,,,,,,,743.0702984999989,744.569936099997,,,,,,741.8879578999986,741.9699658999998,742.2029343999966,743.0702984999989,None,0,,,861083,001,2024-05-15_18h29.13.990,nBack,2022.2.5,59.733302749649454,
,N,None,V,,,,,0,102,102,102,,,,,,,,,16414,,,,,,,745.7697445999984,747.2704357999974,,,,,,744.569936099997,744.6695751999978,744.8700035999973,745.7697445999984,None,1,,,861083,001,2024-05-15_18h29.13.990,nBack,2022.2.5,59.733302749649454,
,Y,z,C,,,,,0,103,103,103,,,,,,,,,16487,,,,,,,748.4709229999971,749.9701864999988,,,,,,747.2704357999974,747.3699405999978,747.5698030999993,748.4709229999971,None,0,,,861083,001,2024-05-15_18h29.13.990,nBack,2022.2.5,59.733302749649454,
,N,None,C,,,,,0,104,104,104,,,,,,,,,16560,,,,,,,751.169952799999,752.670154899999,,,,,,749.9701864999988,750.0701229999977,750.2698558999982,751.169952799999,None,1,,,861083,001,2024-05-15_18h29.13.990,nBack,2022.2.5,59.733302749649454,
,N,None,W,,,,,0,105,105,105,,,,,,,,,16633,,,,,,,753.8703636999999,755.3701209999999,,,,,,752.670154899999,752.7701348999981,752.9705101,753.8703636999999,None,1,,,861083,001,2024-05-15_18h29.13.990,nBack,2022.2.5,59.733302749649454,
,N,None,Y,,,,,0,106,106,106,,,,,,,,,16706,,,,,,,756.5702299999975,758.0700287999971,,,,,,755.3701209999999,755.4703442999999,755.6705104999965,756.5702299999975,None,1,,,861083,001,2024-05-15_18h29.13.990,nBack,2022.2.5,59.733302749649454,
,N,None,B,,,,,0,107,107,107,,,,,,,,,16779,,,,,,,759.2702637999973,760.7708611999988,,,,,,758.0700287999971,758.1703019999986,758.3702914999994,759.2702637999973,None,1,,,861083,001,2024-05-15_18h29.13.990,nBack,2022.2.5,59.733302749649454,
,Y,z,Y,,,,,0,108,108,108,,,,,,,,,16852,,,,,,,761.9708920999983,763.4703384999993,,,,,,760.7708611999988,760.8704803999972,761.0703213999986,761.9708920999983,None,0,,,861083,001,2024-05-15_18h29.13.990,nBack,2022.2.5,59.733302749649454,
,N,None,V,,,,,0,109,109,109,,,,,,,,,16925,,,,,,,764.6703142999977,766.1706195999977,,,,,,763.4703384999993,763.5704503999987,763.7703567999997,764.6703142999977,None,1,,,861083,001,2024-05-15_18h29.13.990,nBack,2022.2.5,59.733302749649454,
,N,None,V,,,,,0,110,110,110,,,,,,,,,16998,,,,,,,767.3709156999976,768.8712239999986,,,,,,766.1706195999977,766.270813799998,766.4708760999965,767.3709156999976,None,1,,,861083,001,2024-05-15_18h29.13.990,nBack,2022.2.5,59.733302749649454,
,N,None,Y,,,,,0,111,111,111,,,,,,,,,17071,,,,,,,770.0706700999981,771.571124799997,,,,,,768.8712239999986,768.9707341999965,769.1709650999983,770.0706700999981,None,1,,,861083,001,2024-05-15_18h29.13.990,nBack,2022.2.5,59.733302749649454,
,N,None,A,,,,,0,112,112,112,,,,,,,,,17144,,,,,,,772.7707084999965,774.271206999998,,,,,,771.571124799997,771.670698599999,771.8705968999966,772.7707084999965,None,1,,,861083,001,2024-05-15_18h29.13.990,nBack,2022.2.5,59.733302749649454,
,Y,z,Y,,,,,0,113,113,113,,,,,,,,,17173,,,,,,,774.737506999998,776.2374815999974,,,,,,774.271206999998,774.3709243999983,774.5710293999982,,z,1,0.3450921000003291,,861083,001,2024-05-15_18h29.13.990,nBack,2022.2.5,59.733302749649454,
,N,None,Y,,,,,0,114,114,114,,,,,,,,,17246,,,,,,,777.4380174999969,778.9381142999991,,,,,,776.2374815999974,776.3376323999983,776.5382402999967,777.4380174999969,None,1,,,861083,001,2024-05-15_18h29.13.990,nBack,2022.2.5,59.733302749649454,
,N,None,C,,,,,0,115,115,115,,,,,,,,,17319,,,,,,,780.1384858999991,781.6377665,,,,,,778.9381142999991,779.0375397999996,779.2375772999985,780.1384858999991,None,1,,,861083,001,2024-05-15_18h29.13.990,nBack,2022.2.5,59.733302749649454,
,Y,z,Y,,,,,0,116,116,116,,,,,,,,,17341,,,,,,,781.9878801999985,783.4878864999991,,,,,,781.6377665,781.7376563999969,781.9380850999987,,z,1,0.23027540000111912,,861083,001,2024-05-15_18h29.13.990,nBack,2022.2.5,59.733302749649454,
,N,None,Y,,,,,0,117,117,117,,,,,,,,,17414,,,,,,,784.6881219999996,786.1882769999975,,,,,,783.4878864999991,783.5882987999976,783.7884249999988,784.6881219999996,None,1,,,861083,001,2024-05-15_18h29.13.990,nBack,2022.2.5,59.733302749649454,
,N,None,A,,,,,0,118,118,118,,,,,,,,,17487,,,,,,,787.4046847999998,,,,,,,786.1882769999975,786.2887504999999,786.4884017999975,,None,1,,,861083,001,2024-05-15_18h29.13.990,nBack,2022.2.5,59.733302749649454,
,N,None,A,,,,,0,119,119,119,,,,,,,,,17511,,,,,,,789.2885448999987,790.7884110999985,,,,,,788.9049636999989,788.9884192999998,789.2047873999982,,z,0,0.2770916000008583,,861083,001,2024-05-15_18h29.13.990,nBack,2022.2.5,59.733302749649454,
,N,None,C,,,,,0,120,120,120,,,,,,,,,17584,,,,,,,791.9885585999982,793.4886366999999,,,,,,790.7884110999985,790.8884237999991,791.088863099998,791.9885585999982,None,1,,,861083,001,2024-05-15_18h29.13.990,nBack,2022.2.5,59.733302749649454,
,N,None,Y,,,,,0,121,121,121,,,,,,,,,17657,,,,,,,794.6883951999989,796.188625499999,,,,,,793.4886366999999,793.5884249999981,793.7883699999984,794.6883951999989,None,1,,,861083,001,2024-05-15_18h29.13.990,nBack,2022.2.5,59.733302749649454,
,N,None,V,,,,,0,122,122,122,,,,,,,,,17730,,,,,,,797.4053867999974,,,,,,,796.188625499999,796.2902099999992,796.4886242999964,,None,1,,,861083,001,2024-05-15_18h29.13.990,nBack,2022.2.5,59.733302749649454,
,N,None,B,,,,,0,123,123,123,,,,,,,,,17802,,,,,,,800.0889445999965,801.5887040999987,,,,,,798.9050384999973,798.9889780999983,799.2050371999976,800.0889445999965,None,1,,,861083,001,2024-05-15_18h29.13.990,nBack,2022.2.5,59.733302749649454,
,N,None,B,,,,,0,124,124,124,,,,,,,,,17874,,,,,,,802.790656899997,,,,,,,801.5887040999987,801.6721178999978,801.8891397999978,802.7718488999999,None,1,,,861083,001,2024-05-15_18h29.13.990,nBack,2022.2.5,59.733302749649454,
,N,None,X,,,,,0,125,125,125,,,,,,,,,17946,,,,,,,805.5056730999968,,,,,,,804.3053293999983,804.3896171999986,804.6054160999993,,None,1,,,861083,001,2024-05-15_18h29.13.990,nBack,2022.2.5,59.733302749649454,
,N,None,A,,,,,0,126,126,126,,,,,,,,,18018,,,,,,,808.1896355999997,,,,,,,807.005629299998,807.089237199998,807.3058143999988,808.1896355999997,None,1,,,861083,001,2024-05-15_18h29.13.990,nBack,2022.2.5,59.733302749649454,
,Y,z,X,,,,,0,127,127,127,,,,,,,,,18041,,,,,,,810.0558015999995,811.5562612999965,,,,,,809.6898607999974,809.7722535999965,810.0058980999966,,z,1,0.26281700000254204,,861083,001,2024-05-15_18h29.13.990,nBack,2022.2.5,59.733302749649454,
,Y,z,A,,,,,0,128,128,128,,,,,,,,,18114,,,,,,,812.7559974999967,814.2558635999994,,,,,,811.5562612999965,811.6558462999965,811.8563432999981,812.7559974999967,None,0,,,861083,001,2024-05-15_18h29.13.990,nBack,2022.2.5,59.733302749649454,
,N,None,B,,,,,0,129,129,129,,,,,,,,,18186,,,,,,,815.4393664999989,816.9391915999986,,,,,,814.2558635999994,814.339201499999,814.5559672999989,815.4393664999989,None,1,,,861083,001,2024-05-15_18h29.13.990,nBack,2022.2.5,59.733302749649454,
,N,None,C,,,,,0,130,130,130,,,,,,,,,18260,,,,,,,818.1561942999979,,,,,,,816.9391915999986,817.0560012999995,817.239300899997,818.1561942999979,None,1,,,861083,001,2024-05-15_18h29.13.990,nBack,2022.2.5,59.733302749649454,
,N,None,Y,,,,,0,131,131,131,,,,,,,,,18333,,,,,,,820.8566592999996,822.3564406999976,,,,,,819.6561190999964,819.7562555999975,819.9575777999999,820.8566592999996,None,1,,,861083,001,2024-05-15_18h29.13.990,nBack,2022.2.5,59.733302749649454,
,N,None,X,,,,,0,132,132,132,,,,,,,,,18405,,,,,,,823.5401903999991,825.0399655999972,,,,,,822.3564406999976,822.4396538999972,822.6563820999982,823.5401903999991,None,1,,,861083,001,2024-05-15_18h29.13.990,nBack,2022.2.5,59.733302749649454,
,N,None,W,,,,,0,133,133,133,,,,,,,,,18478,,,,,,,826.2403670999993,827.7395159999978,,,,,,825.0568206999997,825.1400317999978,825.3570219999965,826.2403670999993,None,1,,,861083,001,2024-05-15_18h29.13.990,nBack,2022.2.5,59.733302749649454,
,Y,z,X,,,,,0,134,134,134,,,,,,,,,18503,,,,,,,828.1400098999984,829.6399709999969,,,,,,827.7395159999978,827.8394652999996,828.0395118999986,,z,1,0.2783918999994057,,861083,001,2024-05-15_18h29.13.990,nBack,2022.2.5,59.733302749649454,
,N,None,V,,,,,0,135,135,135,,,,,,,,,18575,,,,,,,830.8399090999992,832.3399064999976,,,,,,829.6399709999969,829.7396121999991,829.9397789999966,,None,1,,,861083,001,2024-05-15_18h29.13.990,nBack,2022.2.5,59.733302749649454,
,N,None,C,,,,,0,136,136,136,,,,,,,,,18648,,,,,,,833.5400791999964,835.0403847999987,,,,,,832.3399064999976,832.4401728999983,832.6399960999988,833.5400791999964,None,1,,,861083,001,2024-05-15_18h29.13.990,nBack,2022.2.5,59.733302749649454,
,N,None,C,,,,,0,137,137,137,,,,,,,,,18721,,,,,,,836.2402630999968,837.7401913999965,,,,,,835.0403847999987,835.1404208999993,835.3404097999992,836.2402630999968,None,1,,,861083,001,2024-05-15_18h29.13.990,nBack,2022.2.5,59.733302749649454,
,N,None,X,,,,,0,138,138,138,,,,,,,,,18794,,,,,,,838.9571485999986,,,,,,,837.7401913999965,837.8428985999999,838.0405279999977,,None,1,,,861083,001,2024-05-15_18h29.13.990,nBack,2022.2.5,59.733302749649454,
,N,None,Y,,,,,0,139,139,139,,,,,,,,,18865,,,,,,,841.6239582999988,843.1240233999997,,,,,,840.4573047999984,840.5237458999982,840.7571897999987,841.6239582999988,None,1,,,861083,001,2024-05-15_18h29.13.990,nBack,2022.2.5,59.733302749649454,
,N,None,A,,,,,0,140,140,140,,,,,,,,,18938,,,,,,,844.3404557999966,,,,,,,843.1240233999997,843.2238088999984,843.4243777999982,844.3238730999983,None,1,,,861083,001,2024-05-15_18h29.13.990,nBack,2022.2.5,59.733302749649454,
,N,None,V,,,,,0,141,141,141,,,,,,,,,19010,,,,,,,847.0424264999965,,,,,,,845.8425383999966,845.9240028999993,846.1572148999985,847.0244133999986,None,1,,,861083,001,2024-05-15_18h29.13.990,nBack,2022.2.5,59.733302749649454,
,Y,z,A,,,,,0,142,142,142,,,,,,,,,19034,,,,,,,848.9430736999966,,,,,,,848.5577816999976,848.624238999997,848.8581822999986,,z,1,0.2930316000019957,,861083,001,2024-05-15_18h29.13.990,nBack,2022.2.5,59.733302749649454,
,Y,z,V,,,,,0,143,143,143,,,,,,,,,19105,,,,,,,851.642777699999,,,,,,,850.4579172999984,850.5239400999999,850.7574049999967,851.6242504999973,None,0,,,861083,001,2024-05-15_18h29.13.990,nBack,2022.2.5,59.733302749649454,
,N,None,W,,,,,0,144,144,144,,,,,,,,,19176,,,,,,,854.3410572999965,855.8421124999986,,,,,,853.1584819999989,853.224057899999,853.4576740999983,854.3242043999999,None,1,,,861083,001,2024-05-15_18h29.13.990,nBack,2022.2.5,59.733302749649454,
,Y,z,V,,,,,0,145,145,145,,,,,,,,,19249,,,,,,,857.0409477999965,858.5425262999997,,,,,,855.8421124999986,855.9408216999982,856.1576728999971,857.0409477999965,None,0,,,861083,001,2024-05-15_18h29.13.990,nBack,2022.2.5,59.733302749649454,
,N,None,Y,,,,,0,146,146,146,,,,,,,,,19321,,,,,,,859.7414469999967,861.2415470999986,,,,,,858.5425262999997,858.6245351999969,858.8593725999999,859.724422299998,None,1,,,861083,001,2024-05-15_18h29.13.990,nBack,2022.2.5,59.733302749649454,
,,,,,,,,,,,,,,,,,,861.2415470999986,861.7421732999974,,,,,,,,,,,,,,,,,,,,,,861.7421732999974,,,,,,,
