stimuli_letter,target,correct_key,Letter_stimulus,trialsOne.thisRepN,trialsOne.thisTrialN,trialsOne.thisN,trialsOne.thisIndex,trialsTwo.thisRepN,trialsTwo.thisTrialN,trialsTwo.thisN,trialsTwo.thisIndex,WelcomeScreenText.started,WelcomeScreenText.stopped,WelcomeInstructions.started,keyWelcome.started,keyWelcome.keys,keyWelcome.rt,text.started,text.stopped,eegtime,n_back_one.started,Key_one.started,n_back_one.stopped,Key_one.stopped,Key_one.keys,Key_one.corr,ISI.started,ISI.stopped,Key_one.rt,Intro_Block_two.started,Start_Block_One.started,Start_Block_One.keys,Start_Block_One.rt,Block_2_stimulus.started,key_Two.started,Block_2_stimulus.stopped,key_Two.stopped,key_Two.keys,key_Two.corr,key_Two.rt,GoodBye.started,GoodBye.stopped,participant,session,date,expName,psychopyVersion,frameRate,
,,,,,,,,,,,,20.288535700001376,22.294757800000298,22.294757800000298,23.294874100000015,z,5.298347600000852,,,,,,,,,,,,,,,,,,,,,,,,,,232632,001,2024-05-15_17h30.46.805,nBack,2022.2.5,60.12213209910982,
V,None,None,,0,0,0,0,,,,,,,,,,,28.610807099999874,29.127765100000033,73,29.127765100000033,29.211779400000523,29.429124700000102,30.31122420000065,None,1,30.31122420000065,31.811471300001358,,,,,,,,,,,,,,,232632,001,2024-05-15_17h30.46.805,nBack,2022.2.5,60.12213209910982,
X,N,None,,0,1,1,1,,,,,,,,,,,,,146,31.811471300001358,31.911365600000863,32.11081379999996,33.0114451999998,None,1,33.0114451999998,34.51133459999983,,,,,,,,,,,,,,,232632,001,2024-05-15_17h30.46.805,nBack,2022.2.5,60.12213209910982,
A,N,None,,0,2,2,2,,,,,,,,,,,,,219,34.51133459999983,34.61099170000125,34.81108099999983,35.71156300000075,None,1,35.71156300000075,37.211470300000656,,,,,,,,,,,,,,,232632,001,2024-05-15_17h30.46.805,nBack,2022.2.5,60.12213209910982,
A,Y,z,,0,3,3,3,,,,,,,,,,,,,288,37.211470300000656,37.3110112000013,37.5113534000011,,z,1,38.3444655000003,39.844679100000576,1.001709199998004,,,,,,,,,,,,,,232632,001,2024-05-15_17h30.46.805,nBack,2022.2.5,60.12213209910982,
X,N,None,,0,4,4,4,,,,,,,,,,,,,361,39.844679100000576,39.94476070000019,40.14466260000154,41.044995800000834,None,1,41.044995800000834,42.5453604000013,,,,,,,,,,,,,,,232632,001,2024-05-15_17h30.46.805,nBack,2022.2.5,60.12213209910982,
B,N,None,,0,5,5,5,,,,,,,,,,,,,433,42.5453604000013,42.62806820000151,42.8463069999998,43.728639800001474,None,1,43.74556930000108,45.24471799999992,,,,,,,,,,,,,,,232632,001,2024-05-15_17h30.46.805,nBack,2022.2.5,60.12213209910982,
B,Y,z,,0,6,6,6,,,,,,,,,,,,,506,45.24471799999992,45.3447584000005,45.54494130000057,46.44468290000077,None,0,46.44468290000077,47.94485050000003,,,,,,,,,,,,,,,232632,001,2024-05-15_17h30.46.805,nBack,2022.2.5,60.12213209910982,
X,N,None,,0,7,7,7,,,,,,,,,,,,,579,47.94485050000003,48.045213200000944,48.24498250000033,49.14520860000084,None,1,49.14520860000084,50.6451861000005,,,,,,,,,,,,,,,232632,001,2024-05-15_17h30.46.805,nBack,2022.2.5,60.12213209910982,
Y,N,None,,0,8,8,8,,,,,,,,,,,,,652,50.6451861000005,50.74552460000086,50.94512940000095,51.84537679999994,None,1,51.84537679999994,53.34514860000127,,,,,,,,,,,,,,,232632,001,2024-05-15_17h30.46.805,nBack,2022.2.5,60.12213209910982,
Y,Y,z,,0,9,9,9,,,,,,,,,,,,,673,53.34514860000127,53.4457581000006,53.64516800000092,,z,1,53.67849000000024,55.178485000000364,0.21338640000067244,,,,,,,,,,,,,,232632,001,2024-05-15_17h30.46.805,nBack,2022.2.5,60.12213209910982,
B,N,None,,0,10,10,10,,,,,,,,,,,,,746,55.178485000000364,55.278684000000794,55.47889320000104,56.38032600000042,None,1,56.38032600000042,,,,,,,,,,,,,,,,232632,001,2024-05-15_17h30.46.805,nBack,2022.2.5,60.12213209910982,
Y,N,None,,0,11,11,11,,,,,,,,,,,,,818,57.89564790000077,57.978846500000145,58.19599410000046,59.078675900000235,None,1,59.078675900000235,60.578856400001314,,,,,,,,,,,,,,,232632,001,2024-05-15_17h30.46.805,nBack,2022.2.5,60.12213209910982,
V,N,None,,0,12,12,12,,,,,,,,,,,,,891,60.578856400001314,60.67895000000135,60.87909410000066,61.779488900001525,None,1,61.779488900001525,63.28130349999992,,,,,,,,,,,,,,,232632,001,2024-05-15_17h30.46.805,nBack,2022.2.5,60.12213209910982,
C,N,None,,0,13,13,13,,,,,,,,,,,,,964,63.28130349999992,63.379892900000414,63.59548619999987,64.48049150000043,None,1,64.48049150000043,,,,,,,,,,,,,,,,232632,001,2024-05-15_17h30.46.805,nBack,2022.2.5,60.12213209910982,
C,Y,z,,0,14,14,14,,,,,,,,,,,,,1035,65.99609630000123,66.06279110000105,66.29602610000074,67.16241980000086,None,0,67.16241980000086,68.66293890000088,,,,,,,,,,,,,,,232632,001,2024-05-15_17h30.46.805,nBack,2022.2.5,60.12213209910982,
V,N,None,,0,15,15,15,,,,,,,,,,,,,1109,68.66293890000088,68.7814126000012,68.96272719999979,,None,1,69.89625700000033,,,,,,,,,,,,,,,,232632,001,2024-05-15_17h30.46.805,nBack,2022.2.5,60.12213209910982,
X,N,None,,0,16,16,16,,,,,,,,,,,,,1181,71.39621330000045,71.47941549999996,71.69600040000114,72.58144380000158,None,1,72.58144380000158,,,,,,,,,,,,,,,,232632,001,2024-05-15_17h30.46.805,nBack,2022.2.5,60.12213209910982,
Y,N,None,,0,17,17,17,,,,,,,,,,,,,1252,74.09604770000078,74.16332320000038,74.39649700000155,75.26318510000056,None,1,75.26318510000056,76.7637751000002,,,,,,,,,,,,,,,232632,001,2024-05-15_17h30.46.805,nBack,2022.2.5,60.12213209910982,
C,N,None,,0,18,18,18,,,,,,,,,,,,,1326,76.78248600000006,76.87964700000157,77.09614099999999,77.98011899999983,None,1,77.98011899999983,79.48119080000106,,,,,,,,,,,,,,,232632,001,2024-05-15_17h30.46.805,nBack,2022.2.5,60.12213209910982,
C,Y,z,,0,19,19,19,,,,,,,,,,,,,1382,79.48119080000106,79.56391810000059,79.7964221000002,,z,1,80.39663790000122,81.89683580000019,0.8093007999996189,,,,,,,,,,,,,,232632,001,2024-05-15_17h30.46.805,nBack,2022.2.5,60.12213209910982,
A,N,None,,0,20,20,20,,,,,,,,,,,,,1455,81.89683580000019,81.99672040000041,82.19670610000139,83.09675570000036,None,1,83.09675570000036,84.59699350000119,,,,,,,,,,,,,,,232632,001,2024-05-15_17h30.46.805,nBack,2022.2.5,60.12213209910982,
W,N,None,,0,21,21,21,,,,,,,,,,,,,1528,84.59699350000119,84.69702790000156,84.89789390000078,85.79726350000055,None,1,85.79726350000055,87.29694830000153,,,,,,,,,,,,,,,232632,001,2024-05-15_17h30.46.805,nBack,2022.2.5,60.12213209910982,
X,N,None,,0,22,22,22,,,,,,,,,,,,,1601,87.29694830000153,87.39713819999997,87.59867260000101,88.49713230000089,None,1,88.49713230000089,89.99703370000134,,,,,,,,,,,,,,,232632,001,2024-05-15_17h30.46.805,nBack,2022.2.5,60.12213209910982,
X,Y,z,,0,23,23,23,,,,,,,,,,,,,1674,89.99703370000134,90.09654800000135,90.29649880000034,91.19680120000157,None,0,91.19680120000157,92.69669690000046,,,,,,,,,,,,,,,232632,001,2024-05-15_17h30.46.805,nBack,2022.2.5,60.12213209910982,
A,N,None,,0,24,24,24,,,,,,,,,,,,,1747,92.69669690000046,92.79682099999991,92.99758610000026,93.89679160000014,None,1,93.89679160000014,95.3970459000011,,,,,,,,,,,,,,,232632,001,2024-05-15_17h30.46.805,nBack,2022.2.5,60.12213209910982,
X,N,None,,0,25,25,25,,,,,,,,,,,,,1820,95.3970459000011,95.49710539999978,95.69737220000025,96.59715909999977,None,1,96.59715909999977,98.09738070000094,,,,,,,,,,,,,,,232632,001,2024-05-15_17h30.46.805,nBack,2022.2.5,60.12213209910982,
X,Y,z,,0,26,26,26,,,,,,,,,,,,,1892,98.09738070000094,98.19722520000141,98.39704669999992,,None,0,99.29786810000041,100.79759900000136,,,,,,,,,,,,,,,232632,001,2024-05-15_17h30.46.805,nBack,2022.2.5,60.12213209910982,
C,N,None,,0,27,27,27,,,,,,,,,,,,,1965,100.79759900000136,100.89731829999982,101.09718690000045,101.99767419999989,None,1,101.99767419999989,103.49762510000073,,,,,,,,,,,,,,,232632,001,2024-05-15_17h30.46.805,nBack,2022.2.5,60.12213209910982,
V,N,None,,0,28,28,28,,,,,,,,,,,,,2038,103.49762510000073,103.59708130000035,103.79715510000096,104.69788320000043,None,1,104.69788320000043,106.19734750000134,,,,,,,,,,,,,,,232632,001,2024-05-15_17h30.46.805,nBack,2022.2.5,60.12213209910982,
Y,N,None,,0,29,29,29,,,,,,,,,,,,,2111,106.19734750000134,106.29761900000085,106.49738670000079,107.39806110000063,None,1,107.39806110000063,108.89768340000046,,,,,,,,,,,,,,,232632,001,2024-05-15_17h30.46.805,nBack,2022.2.5,60.12213209910982,
X,N,None,,0,30,30,30,,,,,,,,,,,,,2184,108.89768340000046,108.99753770000098,109.19753370000035,110.09749759999977,None,1,110.09749759999977,111.5975139000002,,,,,,,,,,,,,,,232632,001,2024-05-15_17h30.46.805,nBack,2022.2.5,60.12213209910982,
B,N,None,,0,31,31,31,,,,,,,,,,,,,2257,111.5975139000002,111.69776310000088,111.89795870000125,112.79801540000153,None,1,112.79801540000153,114.29767540000103,,,,,,,,,,,,,,,232632,001,2024-05-15_17h30.46.805,nBack,2022.2.5,60.12213209910982,
W,N,None,,0,32,32,32,,,,,,,,,,,,,2330,114.29767540000103,114.39785180000035,114.59835540000131,115.4987813000007,None,1,115.4987813000007,,,,,,,,,,,,,,,,232632,001,2024-05-15_17h30.46.805,nBack,2022.2.5,60.12213209910982,
B,N,None,,0,33,33,33,,,,,,,,,,,,,2403,116.9985342,117.09813720000056,117.29797070000131,118.19795479999993,None,1,118.19795479999993,119.69843330000003,,,,,,,,,,,,,,,232632,001,2024-05-15_17h30.46.805,nBack,2022.2.5,60.12213209910982,
B,Y,z,,0,34,34,34,,,,,,,,,,,,,2476,119.69843330000003,119.79787960000067,119.99813370000084,120.89834970000084,None,0,120.89834970000084,122.39829129999998,,,,,,,,,,,,,,,232632,001,2024-05-15_17h30.46.805,nBack,2022.2.5,60.12213209910982,
W,N,None,,0,35,35,35,,,,,,,,,,,,,2549,122.39829129999998,122.49814500000139,122.69789920000039,123.59795810000105,None,1,123.59795810000105,125.09852750000027,,,,,,,,,,,,,,,232632,001,2024-05-15_17h30.46.805,nBack,2022.2.5,60.12213209910982,
W,Y,z,,0,36,36,36,,,,,,,,,,,,,2621,125.09852750000027,125.19839460000003,125.39817220000077,,None,0,126.29892250000012,127.79858950000016,,,,,,,,,,,,,,,232632,001,2024-05-15_17h30.46.805,nBack,2022.2.5,60.12213209910982,
W,Y,z,,0,37,37,37,,,,,,,,,,,,,2693,127.79858950000016,127.89836620000096,128.09839770000144,,None,0,128.99843130000045,130.49865610000052,,,,,,,,,,,,,,,232632,001,2024-05-15_17h30.46.805,nBack,2022.2.5,60.12213209910982,
C,N,None,,0,38,38,38,,,,,,,,,,,,,2766,130.49865610000052,130.5984550000012,130.798467300001,131.69847570000093,None,1,131.69847570000093,133.19852580000043,,,,,,,,,,,,,,,232632,001,2024-05-15_17h30.46.805,nBack,2022.2.5,60.12213209910982,
Y,N,None,,0,39,39,39,,,,,,,,,,,,,2838,133.19852580000043,133.2820102000005,133.49869540000145,134.38225700000112,None,1,134.38225700000112,135.8819585000001,,,,,,,,,,,,,,,232632,001,2024-05-15_17h30.46.805,nBack,2022.2.5,60.12213209910982,
A,N,None,,0,40,40,40,,,,,,,,,,,,,2911,135.8819585000001,135.98240880000048,136.18222349999996,137.0821659000012,None,1,137.0821659000012,138.58274429999983,,,,,,,,,,,,,,,232632,001,2024-05-15_17h30.46.805,nBack,2022.2.5,60.12213209910982,
A,Y,z,,0,41,41,41,,,,,,,,,,,,,2984,138.58274429999983,138.68334980000145,138.88269430000037,,None,0,139.79896660000122,141.29882760000146,,,,,,,,,,,,,,,232632,001,2024-05-15_17h30.46.805,nBack,2022.2.5,60.12213209910982,
Y,N,None,,0,42,42,42,,,,,,,,,,,,,3056,141.29882760000146,141.38327350000145,141.59872320000068,,None,1,142.49911910000083,,,,,,,,,,,,,,,,232632,001,2024-05-15_17h30.46.805,nBack,2022.2.5,60.12213209910982,
W,N,None,,0,43,43,43,,,,,,,,,,,,,3128,144.00029050000012,144.08327140000074,144.2992275000015,,None,1,145.19916560000092,,,,,,,,,,,,,,,,232632,001,2024-05-15_17h30.46.805,nBack,2022.2.5,60.12213209910982,
B,N,None,,0,44,44,44,,,,,,,,,,,,,3200,146.69897800000035,146.7824510999999,146.99911990000146,147.88251320000018,None,1,147.88251320000018,149.3829005000007,,,,,,,,,,,,,,,232632,001,2024-05-15_17h30.46.805,nBack,2022.2.5,60.12213209910982,
Y,N,None,,0,45,45,45,,,,,,,,,,,,,3273,149.3829005000007,149.48300560000098,149.6826627999999,150.58265240000037,None,1,150.58265240000037,152.08289180000065,,,,,,,,,,,,,,,232632,001,2024-05-15_17h30.46.805,nBack,2022.2.5,60.12213209910982,
C,N,None,,0,46,46,46,,,,,,,,,,,,,3346,152.08289180000065,152.18325640000148,152.3829593999999,153.28265509999983,None,1,153.28265509999983,154.78284340000027,,,,,,,,,,,,,,,232632,001,2024-05-15_17h30.46.805,nBack,2022.2.5,60.12213209910982,
C,Y,z,,0,47,47,47,,,,,,,,,,,,,3419,154.78284340000027,154.88291519999984,155.0827562000013,155.982938000001,None,0,155.982938000001,157.48320830000011,,,,,,,,,,,,,,,232632,001,2024-05-15_17h30.46.805,nBack,2022.2.5,60.12213209910982,
V,N,None,,0,48,48,48,,,,,,,,,,,,,3492,157.48320830000011,157.5834216000003,157.78336350000063,158.68316670000058,None,1,158.68316670000058,160.18408120000095,,,,,,,,,,,,,,,232632,001,2024-05-15_17h30.46.805,nBack,2022.2.5,60.12213209910982,
B,N,None,,0,49,49,49,,,,,,,,,,,,,3565,160.18408120000095,160.28324580000117,160.4997987000006,161.38336260000142,None,1,161.38336260000142,162.88347460000114,,,,,,,,,,,,,,,232632,001,2024-05-15_17h30.46.805,nBack,2022.2.5,60.12213209910982,
X,N,None,,0,50,50,50,,,,,,,,,,,,,3638,162.88347460000114,162.9834848999999,163.18314810000084,164.08334640000066,None,1,164.08334640000066,165.58335760000045,,,,,,,,,,,,,,,232632,001,2024-05-15_17h30.46.805,nBack,2022.2.5,60.12213209910982,
X,Y,z,,0,51,51,51,,,,,,,,,,,,,3711,165.58335760000045,165.6836746000008,165.8836368000011,166.78373270000156,None,0,166.78373270000156,168.28399420000096,,,,,,,,,,,,,,,232632,001,2024-05-15_17h30.46.805,nBack,2022.2.5,60.12213209910982,
V,N,None,,0,52,52,52,,,,,,,,,,,,,3784,168.28399420000096,168.3838194,168.58502790000057,169.48397010000008,None,1,169.48397010000008,170.9838959000008,,,,,,,,,,,,,,,232632,001,2024-05-15_17h30.46.805,nBack,2022.2.5,60.12213209910982,
Y,N,None,,0,53,53,53,,,,,,,,,,,,,3857,170.9838959000008,171.08357969999997,171.28364359999978,172.18398479999996,None,1,172.18398479999996,173.6841411000005,,,,,,,,,,,,,,,232632,001,2024-05-15_17h30.46.805,nBack,2022.2.5,60.12213209910982,
B,N,None,,0,54,54,54,,,,,,,,,,,,,3930,173.6841411000005,173.78373550000106,173.98401840000042,174.88382009999987,None,1,174.88382009999987,176.38418400000046,,,,,,,,,,,,,,,232632,001,2024-05-15_17h30.46.805,nBack,2022.2.5,60.12213209910982,
B,Y,z,,0,55,55,55,,,,,,,,,,,,,4003,176.38418400000046,176.4836301000014,176.68408050000107,177.5839243999999,None,0,177.5839243999999,179.0837287000013,,,,,,,,,,,,,,,232632,001,2024-05-15_17h30.46.805,nBack,2022.2.5,60.12213209910982,
B,Y,z,,0,56,56,56,,,,,,,,,,,,,4071,179.0837287000013,179.1837088000011,179.3841377000008,,z,1,180.20150150000154,181.70143430000098,0.9908973999990849,,,,,,,,,,,,,,232632,001,2024-05-15_17h30.46.805,nBack,2022.2.5,60.12213209910982,
A,N,None,,0,57,57,57,,,,,,,,,,,,,4143,181.70143430000098,181.7841354000011,182.01733550000063,182.88401970000086,None,1,182.88401970000086,184.38453050000135,,,,,,,,,,,,,,,232632,001,2024-05-15_17h30.46.805,nBack,2022.2.5,60.12213209910982,
X,N,None,,0,58,58,58,,,,,,,,,,,,,4217,184.38453050000135,184.5027893000006,184.68468730000131,,None,1,185.61785659999987,,,,,,,,,,,,,,,,232632,001,2024-05-15_17h30.46.805,nBack,2022.2.5,60.12213209910982,
C,N,None,,0,59,59,59,,,,,,,,,,,,,4288,187.11752610000076,187.184455300001,187.41734400000132,188.2844187999999,None,1,188.2844187999999,189.78428260000146,,,,,,,,,,,,,,,232632,001,2024-05-15_17h30.46.805,nBack,2022.2.5,60.12213209910982,
X,N,None,,0,60,60,60,,,,,,,,,,,,,4361,189.78428260000146,189.88412849999986,190.08419240000148,190.98424650000015,None,1,190.98424650000015,192.48528070000066,,,,,,,,,,,,,,,232632,001,2024-05-15_17h30.46.805,nBack,2022.2.5,60.12213209910982,
V,N,None,,0,61,61,61,,,,,,,,,,,,,4434,192.48528070000066,192.5843435000006,192.7844980000009,193.68459890000122,None,1,193.68459890000122,195.18453950000003,,,,,,,,,,,,,,,232632,001,2024-05-15_17h30.46.805,nBack,2022.2.5,60.12213209910982,
V,Y,z,,0,62,62,62,,,,,,,,,,,,,4507,195.18453950000003,195.2843754000005,195.48440160000064,196.38504869999997,None,0,196.38504869999997,197.88465619999988,,,,,,,,,,,,,,,232632,001,2024-05-15_17h30.46.805,nBack,2022.2.5,60.12213209910982,
A,N,None,,0,63,63,63,,,,,,,,,,,,,4580,197.88465619999988,197.98468760000105,198.18499359999987,199.08468820000053,None,1,199.08468820000053,200.58506710000074,,,,,,,,,,,,,,,232632,001,2024-05-15_17h30.46.805,nBack,2022.2.5,60.12213209910982,
Y,N,None,,0,64,64,64,,,,,,,,,,,,,4653,200.58506710000074,200.68572570000106,200.88478970000142,201.78647360000105,None,1,201.78647360000105,203.30255340000076,,,,,,,,,,,,,,,232632,001,2024-05-15_17h30.46.805,nBack,2022.2.5,60.12213209910982,
Y,Y,z,,0,65,65,65,,,,,,,,,,,,,4705,203.30255340000076,203.3849981000003,203.60193880000043,,z,1,204.15144540000074,205.6517152000015,0.7499969000000419,,,,,,,,,,,,,,232632,001,2024-05-15_17h30.46.805,nBack,2022.2.5,60.12213209910982,
B,N,None,,0,66,66,66,,,,,,,,,,,,,4778,205.6517152000015,205.7516013000004,205.9516663000013,206.8516636000004,None,1,206.8516636000004,208.35180820000096,,,,,,,,,,,,,,,232632,001,2024-05-15_17h30.46.805,nBack,2022.2.5,60.12213209910982,
V,N,None,,0,67,67,67,,,,,,,,,,,,,4851,208.35180820000096,208.4536605000012,208.65291810000053,,None,1,209.56868320000103,,,,,,,,,,,,,,,,232632,001,2024-05-15_17h30.46.805,nBack,2022.2.5,60.12213209910982,
V,Y,z,,0,68,68,68,,,,,,,,,,,,,4923,211.06968250000136,211.15158169999995,211.3850051999998,212.25163440000142,None,0,212.25163440000142,213.75227880000057,,,,,,,,,,,,,,,232632,001,2024-05-15_17h30.46.805,nBack,2022.2.5,60.12213209910982,
A,N,None,,0,69,69,69,,,,,,,,,,,,,4996,213.75227880000057,213.85204500000145,214.0519828000015,214.95173820000127,None,1,214.95173820000127,216.45240569999987,,,,,,,,,,,,,,,232632,001,2024-05-15_17h30.46.805,nBack,2022.2.5,60.12213209910982,
W,N,None,,0,70,70,70,,,,,,,,,,,,,5069,216.45240569999987,216.5520359000002,216.75197780000053,217.6521303999998,None,1,217.6521303999998,219.15225090000058,,,,,,,,,,,,,,,232632,001,2024-05-15_17h30.46.805,nBack,2022.2.5,60.12213209910982,
W,Y,z,,0,71,71,71,,,,,,,,,,,,,5142,219.15225090000058,219.25249090000034,219.45209460000115,220.35217999999986,None,0,220.35217999999986,221.85220459999982,,,,,,,,,,,,,,,232632,001,2024-05-15_17h30.46.805,nBack,2022.2.5,60.12213209910982,
Y,N,None,,0,72,72,72,,,,,,,,,,,,,5215,221.85220459999982,221.95397460000095,222.15246620000107,,None,1,223.06926999999996,,,,,,,,,,,,,,,,232632,001,2024-05-15_17h30.46.805,nBack,2022.2.5,60.12213209910982,
B,N,None,,0,73,73,73,,,,,,,,,,,,,5287,224.56917930000054,224.65289370000028,224.86965000000055,225.75259860000006,None,1,225.75259860000006,227.25292330000048,,,,,,,,,,,,,,,232632,001,2024-05-15_17h30.46.805,nBack,2022.2.5,60.12213209910982,
C,N,None,,0,74,74,74,,,,,,,,,,,,,5360,227.25292330000048,227.3525660000014,227.5532189000005,228.45263420000083,None,1,228.45263420000083,229.95255670000006,,,,,,,,,,,,,,,232632,001,2024-05-15_17h30.46.805,nBack,2022.2.5,60.12213209910982,
C,Y,z,,0,75,75,75,,,,,,,,,,,,,5404,229.95255670000006,230.05275970000002,230.25261070000124,,z,1,230.66995010000028,232.17113640000025,0.6001192999992782,,,,,,,,,,,,,,232632,001,2024-05-15_17h30.46.805,nBack,2022.2.5,60.12213209910982,
Y,N,None,,0,76,76,76,,,,,,,,,,,,,5476,232.17113640000025,232.25296170000001,232.48601210000015,233.3525879000008,None,1,233.36936810000043,234.86965500000042,,,,,,,,,,,,,,,232632,001,2024-05-15_17h30.46.805,nBack,2022.2.5,60.12213209910982,
X,N,None,,0,77,77,77,,,,,,,,,,,,,5549,234.86965500000042,234.96994050000103,235.1706393000004,236.0697215,None,1,236.0697215,237.57076210000014,,,,,,,,,,,,,,,232632,001,2024-05-15_17h30.46.805,nBack,2022.2.5,60.12213209910982,
X,Y,z,,0,78,78,78,,,,,,,,,,,,,5622,237.57076210000014,237.67162890000145,237.8867893000006,,None,0,238.78623630000038,,,,,,,,,,,,,,,,232632,001,2024-05-15_17h30.46.805,nBack,2022.2.5,60.12213209910982,
C,N,None,,0,79,79,79,,,,,,,,,,,,,5694,240.28616560000046,240.36991280000075,240.58617589999994,241.46971450000092,None,1,241.46971450000092,242.9709199000008,,,,,,,,,,,,,,,232632,001,2024-05-15_17h30.46.805,nBack,2022.2.5,60.12213209910982,
W,N,None,,0,80,80,80,,,,,,,,,,,,,5767,242.9709199000008,243.07086730000083,243.28623450000123,,None,1,244.18638810000084,,,,,,,,,,,,,,,,232632,001,2024-05-15_17h30.46.805,nBack,2022.2.5,60.12213209910982,
W,Y,z,,0,81,81,81,,,,,,,,,,,,,5806,245.68672030000016,245.75297940000019,245.98676119999982,,z,1,246.32013840000036,247.82091200000104,0.5458925999992061,,,,,,,,,,,,,,232632,001,2024-05-15_17h30.46.805,nBack,2022.2.5,60.12213209910982,
W,Y,z,,0,82,82,82,,,,,,,,,,,,,5851,247.82091200000104,247.9204991000006,248.13663460000134,,z,1,248.55415350000112,250.05541840000114,0.6078689000005397,,,,,,,,,,,,,,232632,001,2024-05-15_17h30.46.805,nBack,2022.2.5,60.12213209910982,
C,N,None,,0,83,83,83,,,,,,,,,,,,,5923,250.05541840000114,250.13714960000107,250.37037480000072,251.23741580000024,None,1,251.25511619999997,,,,,,,,,,,,,,,,232632,001,2024-05-15_17h30.46.805,nBack,2022.2.5,60.12213209910982,
Y,N,None,,0,84,84,84,,,,,,,,,,,,,5995,252.77043360000062,252.8539716000014,253.07014290000006,253.95347519999996,None,1,253.95347519999996,255.45352380000077,,,,,,,,,,,,,,,232632,001,2024-05-15_17h30.46.805,nBack,2022.2.5,60.12213209910982,
C,N,None,,0,85,85,85,,,,,,,,,,,,,6068,255.45352380000077,255.55361220000123,255.7535243000002,256.6541312999998,None,1,256.6541312999998,258.1536285000002,,,,,,,,,,,,,,,232632,001,2024-05-15_17h30.46.805,nBack,2022.2.5,60.12213209910982,
X,N,None,,0,86,86,86,,,,,,,,,,,,,6141,258.1536285000002,258.25513520000095,258.4535706000006,,None,1,259.3707497000014,,,,,,,,,,,,,,,,232632,001,2024-05-15_17h30.46.805,nBack,2022.2.5,60.12213209910982,
B,N,None,,0,87,87,87,,,,,,,,,,,,,6213,260.8705021000005,260.95422280000093,261.1705869000016,262.0542497000006,None,1,262.0542497000006,263.5542428000008,,,,,,,,,,,,,,,232632,001,2024-05-15_17h30.46.805,nBack,2022.2.5,60.12213209910982,
B,Y,z,,0,88,88,88,,,,,,,,,,,,,6235,263.5542428000008,263.65397590000066,263.8539292000005,,z,1,263.90412970000034,265.40423890000056,0.23051179999856686,,,,,,,,,,,,,,232632,001,2024-05-15_17h30.46.805,nBack,2022.2.5,60.12213209910982,
A,N,None,,0,89,89,89,,,,,,,,,,,,,6308,265.40423890000056,265.5042446000007,265.70413740000004,266.60420540000086,None,1,266.60420540000086,268.10452110000006,,,,,,,,,,,,,,,232632,001,2024-05-15_17h30.46.805,nBack,2022.2.5,60.12213209910982,
B,N,None,,0,90,90,90,,,,,,,,,,,,,6381,268.10452110000006,268.20570940000107,268.4045201000008,,None,1,269.3208659000011,,,,,,,,,,,,,,,,232632,001,2024-05-15_17h30.46.805,nBack,2022.2.5,60.12213209910982,
V,N,None,,0,91,91,91,,,,,,,,,,,,,6454,270.8045336000014,270.90476070000113,271.1045549999999,272.0047435000015,None,1,272.0047435000015,273.5045893000006,,,,,,,,,,,,,,,232632,001,2024-05-15_17h30.46.805,nBack,2022.2.5,60.12213209910982,
V,Y,z,,0,92,92,92,,,,,,,,,,,,,6494,273.5045893000006,273.60490870000103,273.80477600000086,,z,1,274.1542874000006,275.6543956000005,0.5200512999999773,,,,,,,,,,,,,,232632,001,2024-05-15_17h30.46.805,nBack,2022.2.5,60.12213209910982,
B,N,None,,0,93,93,93,,,,,,,,,,,,,6566,275.6543956000005,275.73814050000146,275.95506380000006,276.83875550000084,None,1,276.854702300001,,,,,,,,,,,,,,,,232632,001,2024-05-15_17h30.46.805,nBack,2022.2.5,60.12213209910982,
W,N,None,,0,94,94,94,,,,,,,,,,,,,6639,278.3546019000005,278.45449890000054,278.6549989000014,279.5546391000007,None,1,279.5546391000007,281.05484680000154,,,,,,,,,,,,,,,232632,001,2024-05-15_17h30.46.805,nBack,2022.2.5,60.12213209910982,
B,N,None,,0,95,95,95,,,,,,,,,,,,,6711,281.05484680000154,281.137936000001,281.35498760000155,282.2384729000005,None,1,282.2384729000005,283.7381529000013,,,,,,,,,,,,,,,232632,001,2024-05-15_17h30.46.805,nBack,2022.2.5,60.12213209910982,
B,Y,z,,0,96,96,96,,,,,,,,,,,,,6734,283.7381529000013,283.83828020000146,284.0381077000002,,z,1,284.10490430000027,,0.2360854999988078,,,,,,,,,,,,,,232632,001,2024-05-15_17h30.46.805,nBack,2022.2.5,60.12213209910982,
Y,N,None,,0,97,97,97,,,,,,,,,,,,,6807,285.60525080000116,285.70536970000103,285.9052264000002,286.8048807000014,None,1,286.8048807000014,288.3047445000011,,,,,,,,,,,,,,,232632,001,2024-05-15_17h30.46.805,nBack,2022.2.5,60.12213209910982,
B,N,None,,0,98,98,98,,,,,,,,,,,,,6880,288.3047445000011,288.40482970000085,288.6048186000007,289.5055686000014,None,1,289.5055686000014,291.0051947000011,,,,,,,,,,,,,,,232632,001,2024-05-15_17h30.46.805,nBack,2022.2.5,60.12213209910982,
B,Y,z,,0,99,99,99,,,,,,,,,,,,,6953,291.0051947000011,291.1050793000013,291.30489940000007,292.20511220000117,None,0,292.20511220000117,293.8184476000006,,,,,,,,,,,,,,,232632,001,2024-05-15_17h30.46.805,nBack,2022.2.5,60.12213209910982,
W,N,None,,0,100,100,100,,,,,,,,,,,,,7019,293.8184476000006,293.8184476000006,294.1229847000013,,None,1,294.9055339000006,,,,,,,,,,,,,,,,232632,001,2024-05-15_17h30.46.805,nBack,2022.2.5,60.12213209910982,
V,N,None,,0,101,101,101,,,,,,,,,,,,,7092,296.405904700001,296.50537520000034,296.7053642999999,297.60554440000124,None,1,297.60554440000124,299.1054683000002,,,,,,,,,,,,,,,232632,001,2024-05-15_17h30.46.805,nBack,2022.2.5,60.12213209910982,
A,N,None,,0,102,102,102,,,,,,,,,,,,,7165,299.1054683000002,299.20568660000026,299.4055311000011,300.305343,None,1,300.305343,,,,,,,,,,,,,,,,232632,001,2024-05-15_17h30.46.805,nBack,2022.2.5,60.12213209910982,
A,Y,z,,0,103,103,103,,,,,,,,,,,,,7186,301.8055361000006,301.9063780000015,302.10559860000103,,z,1,302.13943910000125,,0.20864389999951527,,,,,,,,,,,,,,232632,001,2024-05-15_17h30.46.805,nBack,2022.2.5,60.12213209910982,
X,N,None,,0,104,104,104,,,,,,,,,,,,,7259,303.63885910000135,303.7391697000003,303.93949150000117,304.8391714999998,None,1,304.8391714999998,306.33914790000017,,,,,,,,,,,,,,,232632,001,2024-05-15_17h30.46.805,nBack,2022.2.5,60.12213209910982,
V,N,None,,0,105,105,105,,,,,,,,,,,,,7331,306.33914790000017,306.4392473000007,306.63912690000143,,None,1,307.53913190000094,309.03922109999985,,,,,,,,,,,,,,,232632,001,2024-05-15_17h30.46.805,nBack,2022.2.5,60.12213209910982,
Y,N,None,,0,106,106,106,,,,,,,,,,,,,7404,309.03922109999985,309.13993500000106,309.33913530000063,310.23946630000137,None,1,310.23946630000137,311.7395299,,,,,,,,,,,,,,,232632,001,2024-05-15_17h30.46.805,nBack,2022.2.5,60.12213209910982,
Y,Y,z,,0,107,107,107,,,,,,,,,,,,,7433,311.7395299,311.83972020000147,312.0399972000014,,z,1,312.20617980000134,313.7063259000006,0.34277489999840327,,,,,,,,,,,,,,232632,001,2024-05-15_17h30.46.805,nBack,2022.2.5,60.12213209910982,
V,N,None,,0,108,108,108,,,,,,,,,,,,,7506,313.7063259000006,313.8064011000006,314.00627930000155,314.9067300000006,None,1,314.9067300000006,316.4059422999999,,,,,,,,,,,,,,,232632,001,2024-05-15_17h30.46.805,nBack,2022.2.5,60.12213209910982,
C,N,None,,0,109,109,109,,,,,,,,,,,,,7579,316.4059422999999,316.50659910000104,316.7064186000007,317.60772370000086,None,1,317.60772370000086,,,,,,,,,,,,,,,,232632,001,2024-05-15_17h30.46.805,nBack,2022.2.5,60.12213209910982,
W,N,None,,0,110,110,110,,,,,,,,,,,,,7651,319.1233530999998,319.2066164000007,319.4233252000013,320.3063282000003,None,1,320.3063282000003,321.8068550000007,,,,,,,,,,,,,,,232632,001,2024-05-15_17h30.46.805,nBack,2022.2.5,60.12213209910982,
X,N,None,,0,111,111,111,,,,,,,,,,,,,7724,321.8068550000007,321.90631230000145,322.1064208000007,323.00649970000086,None,1,323.00649970000086,324.50644790000115,,,,,,,,,,,,,,,232632,001,2024-05-15_17h30.46.805,nBack,2022.2.5,60.12213209910982,
X,Y,z,,0,112,112,112,,,,,,,,,,,,,7797,324.50644790000115,324.6065004000011,324.80655970000043,325.70656170000075,None,0,325.70656170000075,,,,,,,,,,,,,,,,232632,001,2024-05-15_17h30.46.805,nBack,2022.2.5,60.12213209910982,
Y,N,None,,0,113,113,113,,,,,,,,,,,,,7870,327.2065569000006,327.30672330000016,327.5068468999998,328.4068941000005,None,1,328.4068941000005,329.9069803000002,,,,,,,,,,,,,,,232632,001,2024-05-15_17h30.46.805,nBack,2022.2.5,60.12213209910982,
X,N,None,,0,114,114,114,,,,,,,,,,,,,7943,329.9069803000002,330.006668,330.20677220000107,331.1068810000015,None,1,331.1068810000015,332.60681060000024,,,,,,,,,,,,,,,232632,001,2024-05-15_17h30.46.805,nBack,2022.2.5,60.12213209910982,
W,N,None,,0,115,115,115,,,,,,,,,,,,,8016,332.60681060000024,332.69173039999987,332.9066816000013,333.8066256000002,None,1,333.8066256000002,335.3068836000002,,,,,,,,,,,,,,,232632,001,2024-05-15_17h30.46.805,nBack,2022.2.5,60.12213209910982,
X,N,None,,0,116,116,116,,,,,,,,,,,,,8089,335.3068836000002,335.4067171000006,335.6070399,336.50674680000157,None,1,336.50674680000157,338.00707390000025,,,,,,,,,,,,,,,232632,001,2024-05-15_17h30.46.805,nBack,2022.2.5,60.12213209910982,
A,N,None,,0,117,117,117,,,,,,,,,,,,,8162,338.00707390000025,338.1070183000011,338.3070151000011,339.20684340000116,None,1,339.20684340000116,340.7073928000009,,,,,,,,,,,,,,,232632,001,2024-05-15_17h30.46.805,nBack,2022.2.5,60.12213209910982,
B,N,None,,0,118,118,118,,,,,,,,,,,,,8235,340.7073928000009,340.8070312,341.0071457000013,341.9072930000002,None,1,341.9072930000002,343.40741979999984,,,,,,,,,,,,,,,232632,001,2024-05-15_17h30.46.805,nBack,2022.2.5,60.12213209910982,
B,Y,z,,0,119,119,119,,,,,,,,,,,,,8259,343.40741979999984,343.5072248000015,343.7076009000011,,z,1,343.7908249000011,345.2917350000007,0.2552245999995648,,,,,,,,,,,,,,232632,001,2024-05-15_17h30.46.805,nBack,2022.2.5,60.12213209910982,
W,N,None,,0,120,120,120,,,,,,,,,,,,,8332,345.2917350000007,345.3913603000001,345.6074645000008,346.4908274999998,None,1,346.4908274999998,347.99135130000104,,,,,,,,,,,,,,,232632,001,2024-05-15_17h30.46.805,nBack,2022.2.5,60.12213209910982,
X,N,None,,0,121,121,121,,,,,,,,,,,,,8404,347.99135130000104,348.0740628000003,348.2908621000006,349.1755314000002,None,1,349.19128810000075,,,,,,,,,,,,,,,,232632,001,2024-05-15_17h30.46.805,nBack,2022.2.5,60.12213209910982,
Y,N,None,,0,122,122,122,,,,,,,,,,,,,8477,350.69118190000154,350.7913458000003,350.9913843000013,351.8916438000015,None,1,351.8916438000015,353.39128770000025,,,,,,,,,,,,,,,232632,001,2024-05-15_17h30.46.805,nBack,2022.2.5,60.12213209910982,
B,N,None,,0,123,123,123,,,,,,,,,,,,,8550,353.39128770000025,353.49132100000134,353.6914205000012,354.59105030000137,None,1,354.59105030000137,356.09113160000015,,,,,,,,,,,,,,,232632,001,2024-05-15_17h30.46.805,nBack,2022.2.5,60.12213209910982,
A,N,None,,0,124,124,124,,,,,,,,,,,,,8623,356.09113160000015,356.1912869000007,356.39110940000137,357.2913309000014,None,1,357.2913309000014,,,,,,,,,,,,,,,,232632,001,2024-05-15_17h30.46.805,nBack,2022.2.5,60.12213209910982,
X,N,None,,0,125,125,125,,,,,,,,,,,,,8695,358.79138200000125,358.89176750000115,359.09143420000146,,None,1,359.99195510000027,361.49118070000077,,,,,,,,,,,,,,,232632,001,2024-05-15_17h30.46.805,nBack,2022.2.5,60.12213209910982,
V,N,None,,0,126,126,126,,,,,,,,,,,,,8767,361.49118070000077,361.57473030000074,361.7915404000014,362.6746653000009,None,1,362.6746653000009,364.1754860000001,,,,,,,,,,,,,,,232632,001,2024-05-15_17h30.46.805,nBack,2022.2.5,60.12213209910982,
V,Y,z,,0,127,127,127,,,,,,,,,,,,,8799,364.1754860000001,364.2751352000014,364.4749208000012,,z,1,364.691831600001,366.1919428000001,0.39404519999879994,,,,,,,,,,,,,,232632,001,2024-05-15_17h30.46.805,nBack,2022.2.5,60.12213209910982,
X,N,None,,0,128,128,128,,,,,,,,,,,,,8872,366.1919428000001,366.2915086000012,366.4916931000007,367.39187010000023,None,1,367.39187010000023,368.8921444000007,,,,,,,,,,,,,,,232632,001,2024-05-15_17h30.46.805,nBack,2022.2.5,60.12213209910982,
V,N,None,,0,129,129,129,,,,,,,,,,,,,8944,368.8921444000007,368.97516580000047,369.1919582999999,370.07502920000115,None,1,370.07502920000115,371.5752435000013,,,,,,,,,,,,,,,232632,001,2024-05-15_17h30.46.805,nBack,2022.2.5,60.12213209910982,
V,Y,z,,0,130,130,130,,,,,,,,,,,,,8972,371.5920417000016,371.69284440000047,371.89213630000086,,z,1,372.0258363000012,373.5252452000004,0.30994299999838404,,,,,,,,,,,,,,232632,001,2024-05-15_17h30.46.805,nBack,2022.2.5,60.12213209910982,
W,N,None,,0,131,131,131,,,,,,,,,,,,,9045,373.5252452000004,373.6253860000015,373.8253660999999,374.7252392999999,None,1,374.7252392999999,376.2254606000006,,,,,,,,,,,,,,,232632,001,2024-05-15_17h30.46.805,nBack,2022.2.5,60.12213209910982,
C,N,None,,0,132,132,132,,,,,,,,,,,,,9117,376.2254606000006,376.30890480000016,376.5255534000007,377.4099530000003,None,1,377.42530910000096,378.9257310000012,,,,,,,,,,,,,,,232632,001,2024-05-15_17h30.46.805,nBack,2022.2.5,60.12213209910982,
A,N,None,,0,133,133,133,,,,,,,,,,,,,9190,378.9257310000012,379.0258384000008,379.22588970000106,380.1256917999999,None,1,380.1256917999999,381.6256401999999,,,,,,,,,,,,,,,232632,001,2024-05-15_17h30.46.805,nBack,2022.2.5,60.12213209910982,
V,N,None,,0,134,134,134,,,,,,,,,,,,,9262,381.6256401999999,381.708842,381.92580550000093,382.80903000000035,None,1,382.80903000000035,384.3090325000012,,,,,,,,,,,,,,,232632,001,2024-05-15_17h30.46.805,nBack,2022.2.5,60.12213209910982,
A,N,None,,0,135,135,135,,,,,,,,,,,,,9297,384.3090325000012,384.40892090000125,384.60921920000146,,z,0,384.87573239999983,386.3770048000006,0.4438509999999951,,,,,,,,,,,,,,232632,001,2024-05-15_17h30.46.805,nBack,2022.2.5,60.12213209910982,
A,Y,z,,0,136,136,136,,,,,,,,,,,,,9329,386.3770048000006,386.4759170000016,386.6759610000008,,z,1,386.8926760000013,388.39300750000075,0.3932037999984459,,,,,,,,,,,,,,232632,001,2024-05-15_17h30.46.805,nBack,2022.2.5,60.12213209910982,
A,Y,z,,0,137,137,137,,,,,,,,,,,,,9387,388.39300750000075,388.4928534999999,388.69249649999983,,z,1,389.3426260000015,390.8426221999998,0.8178587000002153,,,,,,,,,,,,,,232632,001,2024-05-15_17h30.46.805,nBack,2022.2.5,60.12213209910982,
C,N,None,,0,138,138,138,,,,,,,,,,,,,9460,390.8426221999998,390.94289150000077,391.14265390000037,392.0435324000009,None,1,392.0435324000009,393.54493730000104,,,,,,,,,,,,,,,232632,001,2024-05-15_17h30.46.805,nBack,2022.2.5,60.12213209910982,
W,N,None,,0,139,139,139,,,,,,,,,,,,,9532,393.54493730000104,393.62624490000053,393.859818500001,394.72688110000126,None,1,394.74315600000045,396.24324549999983,,,,,,,,,,,,,,,232632,001,2024-05-15_17h30.46.805,nBack,2022.2.5,60.12213209910982,
W,Y,z,,0,140,140,140,,,,,,,,,,,,,9558,396.24324549999983,396.3263048000008,396.5433066000005,,z,1,396.65950310000153,398.15940130000126,0.31035049999991315,,,,,,,,,,,,,,232632,001,2024-05-15_17h30.46.805,nBack,2022.2.5,60.12213209910982,
B,N,None,,0,141,141,141,,,,,,,,,,,,,9631,398.15940130000126,398.25969030000124,398.45942130000003,399.3599112000011,None,1,399.3599112000011,400.8596570000009,,,,,,,,,,,,,,,232632,001,2024-05-15_17h30.46.805,nBack,2022.2.5,60.12213209910982,
C,N,None,,0,142,142,142,,,,,,,,,,,,,9704,400.8596570000009,400.9596152000013,401.15967679999994,402.0597464000002,None,1,402.0597464000002,,,,,,,,,,,,,,,,232632,001,2024-05-15_17h30.46.805,nBack,2022.2.5,60.12213209910982,
X,N,None,,0,143,143,143,,,,,,,,,,,,,9777,403.55979240000124,403.6598926000006,403.85989040000095,404.76018939999994,None,1,404.76018939999994,406.2600642000016,,,,,,,,,,,,,,,232632,001,2024-05-15_17h30.46.805,nBack,2022.2.5,60.12213209910982,
Y,N,None,,0,144,144,144,,,,,,,,,,,,,9850,406.2600642000016,406.3603421000007,406.5601729000009,407.46051400000033,None,1,407.46051400000033,,,,,,,,,,,,,,,,232632,001,2024-05-15_17h30.46.805,nBack,2022.2.5,60.12213209910982,
Y,Y,z,,0,145,145,145,,,,,,,,,,,,,9878,408.9604780999998,409.06052810000074,409.26046339999994,,z,1,409.411515400001,,0.31867919999967853,,,,,,,,,,,,,,232632,001,2024-05-15_17h30.46.805,nBack,2022.2.5,60.12213209910982,
C,N,None,,0,146,146,146,,,,,,,,,,,,,9950,410.92671880000125,411.0113345000009,411.22720180000033,,None,1,412.12719130000005,,,,,,,,,,,,,,,,232632,001,2024-05-15_17h30.46.805,nBack,2022.2.5,60.12213209910982,
,,,,,,,,,,,,,,,,,,,,,,,,,,,,,,413.6272570000001,415.6101687999999,z,119.86303739999857,,,,,,,,,,232632,001,2024-05-15_17h30.46.805,nBack,2022.2.5,60.12213209910982,
,None,None,V,,,,,0,0,0,0,,,,,,,,,10022,,,,,,,536.699222700001,538.2001067000001,,,,,,535.5251727000013,535.5990127000005,535.832499600001,536.699222700001,None,1,,,,232632,001,2024-05-15_17h30.46.805,nBack,2022.2.5,60.12213209910982,
,None,None,W,,,,,0,1,1,1,,,,,,,,,10095,,,,,,,539.4154863000003,,,,,,,538.2001067000001,538.3012740000013,538.5156127000009,,None,1,,,,232632,001,2024-05-15_17h30.46.805,nBack,2022.2.5,60.12213209910982,
,N,None,X,,,,,0,2,2,2,,,,,,,,,10166,,,,,,,542.082390900001,543.5824756000002,,,,,,540.9156018000012,540.9821239000012,541.2157384000002,542.082390900001,None,1,,,,232632,001,2024-05-15_17h30.46.805,nBack,2022.2.5,60.12213209910982,
,Y,z,W,,,,,0,3,3,3,,,,,,,,,10212,,,,,,,544.3324231000006,545.8329111000003,,,,,,543.5824756000002,543.6824199000002,543.8822217000015,,z,1,0.6302495999989333,,,232632,001,2024-05-15_17h30.46.805,nBack,2022.2.5,60.12213209910982,
,N,None,V,,,,,0,4,4,4,,,,,,,,,10285,,,,,,,547.0326633000004,548.5330670000003,,,,,,545.8329111000003,545.9326091000003,546.1325983000006,547.0326633000004,None,1,,,,232632,001,2024-05-15_17h30.46.805,nBack,2022.2.5,60.12213209910982,
,N,None,Y,,,,,0,5,5,5,,,,,,,,,10358,,,,,,,549.7333165,551.2334573000007,,,,,,548.5330670000003,548.6330345000006,548.8331367999999,549.7333165,None,1,,,,232632,001,2024-05-15_17h30.46.805,nBack,2022.2.5,60.12213209910982,
,N,None,C,,,,,0,6,6,6,,,,,,,,,10431,,,,,,,552.4501080000009,,,,,,,551.2334573000007,551.3338992000008,551.5335714000012,,None,1,,,,232632,001,2024-05-15_17h30.46.805,nBack,2022.2.5,60.12213209910982,
,Y,z,Y,,,,,0,7,7,7,,,,,,,,,10458,,,,,,,554.3848847999998,,,,,,,553.9513490999998,554.0335608000005,554.2515628000001,,z,1,0.3172064999998838,,,232632,001,2024-05-15_17h30.46.805,nBack,2022.2.5,60.12213209910982,
,Y,z,C,,,,,0,8,8,8,,,,,,,,,10482,,,,,,,556.2828275000011,557.7830422000006,,,,,,555.9001847,555.9859378000001,556.2005414000014,,z,1,0.2767315000000963,,,232632,001,2024-05-15_17h30.46.805,nBack,2022.2.5,60.12213209910982,
,N,None,B ,,,,,0,9,9,9,,,,,,,,,10555,,,,,,,558.9829621000008,560.482993900001,,,,,,557.7830422000006,557.8830527000009,558.0830170999998,558.9829621000008,None,1,,,,232632,001,2024-05-15_17h30.46.805,nBack,2022.2.5,60.12213209910982,
,N,None,Y,,,,,0,10,10,10,,,,,,,,,10628,,,,,,,561.6833424000015,563.1832352000001,,,,,,560.482993900001,560.5833092000012,560.7832042000009,561.6833424000015,None,1,,,,232632,001,2024-05-15_17h30.46.805,nBack,2022.2.5,60.12213209910982,
,N,None,B,,,,,0,11,11,11,,,,,,,,,10651,,,,,,,563.5502315000012,565.0509538000006,,,,,,563.1832352000001,563.2848042000005,563.4835938000015,,z,0,0.23988099999951373,,,232632,001,2024-05-15_17h30.46.805,nBack,2022.2.5,60.12213209910982,
,Y,z,Y,,,,,0,12,12,12,,,,,,,,,10675,,,,,,,565.4334761000009,566.9336489000016,,,,,,565.0509538000006,565.1336982000012,565.3507071000004,,z,1,0.273487299999033,,,232632,001,2024-05-15_17h30.46.805,nBack,2022.2.5,60.12213209910982,
,N,None,C,,,,,0,13,13,13,,,,,,,,,10748,,,,,,,568.1344700000009,569.6339141000008,,,,,,566.9336489000016,567.0338833000005,567.2343642000014,568.1344700000009,None,1,,,,232632,001,2024-05-15_17h30.46.805,nBack,2022.2.5,60.12213209910982,
,N,None,W,,,,,0,14,14,14,,,,,,,,,10821,,,,,,,570.8342983000002,572.3335668,,,,,,569.6339141000008,569.7341833999999,569.9340511999999,570.8342983000002,None,1,,,,232632,001,2024-05-15_17h30.46.805,nBack,2022.2.5,60.12213209910982,
,N,None,A,,,,,0,15,15,15,,,,,,,,,10894,,,,,,,573.5338864000005,575.0345152999998,,,,,,572.3335668,572.4338657000008,572.6335663000009,573.5338864000005,None,1,,,,232632,001,2024-05-15_17h30.46.805,nBack,2022.2.5,60.12213209910982,
,Y,z,W,,,,,0,16,16,16,,,,,,,,,10917,,,,,,,575.4009583000006,576.9005481000004,,,,,,575.0345152999998,575.1339912000003,575.3339812000013,,z,1,0.24274199999854318,,,232632,001,2024-05-15_17h30.46.805,nBack,2022.2.5,60.12213209910982,
,N,None,B,,,,,0,17,17,17,,,,,,,,,10990,,,,,,,578.1007569000012,579.6005620000014,,,,,,576.9005481000004,577.0007237999998,577.2008301000005,578.1007569000012,None,1,,,,232632,001,2024-05-15_17h30.46.805,nBack,2022.2.5,60.12213209910982,
,Y,z,W,,,,,0,18,18,18,,,,,,,,,11063,,,,,,,580.8009399000002,582.3008454999999,,,,,,579.6005620000014,579.7006749000011,579.9009963000008,580.8009399000002,None,0,,,,232632,001,2024-05-15_17h30.46.805,nBack,2022.2.5,60.12213209910982,
,N,None,V,,,,,0,19,19,19,,,,,,,,,11136,,,,,,,583.5014283,585.0013428000002,,,,,,582.3008454999999,582.4007931000015,582.6015772999999,583.5014283,None,1,,,,232632,001,2024-05-15_17h30.46.805,nBack,2022.2.5,60.12213209910982,
,Y,z,W,,,,,0,20,20,20,,,,,,,,,11163,,,,,,,585.4348475000006,586.9344353000015,,,,,,585.0013428000002,585.1010403,585.3013053000013,,z,1,0.30763909999950556,,,232632,001,2024-05-15_17h30.46.805,nBack,2022.2.5,60.12213209910982,
,N,None,X,,,,,0,21,21,21,,,,,,,,,11235,,,,,,,588.1345397000005,,,,,,,586.9344353000015,587.0347813000008,587.2350889999998,,None,1,,,,232632,001,2024-05-15_17h30.46.805,nBack,2022.2.5,60.12213209910982,
,Y,z,W,,,,,0,22,22,22,,,,,,,,,11269,,,,,,,590.1868916000003,,,,,,,589.6350044999999,589.7345138000001,589.936029800001,,z,1,0.4243028000000777,,,232632,001,2024-05-15_17h30.46.805,nBack,2022.2.5,60.12213209910982,
,N,None,A,,,,,0,23,23,23,,,,,,,,,11340,,,,,,,592.8684904000002,594.3680002000001,,,,,,591.7012489000008,591.7688104000008,592.0015029000006,592.8684904000002,None,1,,,,232632,001,2024-05-15_17h30.46.805,nBack,2022.2.5,60.12213209910982,
,N,None,X,,,,,0,24,24,24,,,,,,,,,11414,,,,,,,595.601453700001,,,,,,,594.3680002000001,594.4858856999999,594.6680436000006,,None,1,,,,232632,001,2024-05-15_17h30.46.805,nBack,2022.2.5,60.12213209910982,
,N,None,V,,,,,0,25,25,25,,,,,,,,,11485,,,,,,,598.2683732000005,599.7681501000006,,,,,,597.1012854,597.1680666000011,597.4013407000002,598.2683732000005,None,1,,,,232632,001,2024-05-15_17h30.46.805,nBack,2022.2.5,60.12213209910982,
,N,None,W,,,,,0,26,26,26,,,,,,,,,11558,,,,,,,600.9687639000003,602.4682819999998,,,,,,599.7681501000006,599.86823,600.0690589000005,600.9687639000003,None,1,,,,232632,001,2024-05-15_17h30.46.805,nBack,2022.2.5,60.12213209910982,
,N,None,A,,,,,0,27,27,27,,,,,,,,,11631,,,,,,,603.6683598,605.1683840000005,,,,,,602.4682819999998,602.568258700001,602.7684608,603.6683598,None,1,,,,232632,001,2024-05-15_17h30.46.805,nBack,2022.2.5,60.12213209910982,
,N,None,X,,,,,0,28,28,28,,,,,,,,,11704,,,,,,,606.3686770000004,607.8685172000005,,,,,,605.1862197999999,605.2682894999998,605.5017925000011,606.3686770000004,None,1,,,,232632,001,2024-05-15_17h30.46.805,nBack,2022.2.5,60.12213209910982,
,N,None,V,,,,,0,29,29,29,,,,,,,,,11733,,,,,,,608.3351543000008,609.835319400001,,,,,,607.8685172000005,607.9685679000013,608.1685870000001,,z,0,0.35180969999964873,,,232632,001,2024-05-15_17h30.46.805,nBack,2022.2.5,60.12213209910982,
,Y,z,X,,,,,0,30,30,30,,,,,,,,,11806,,,,,,,611.0361568000008,612.5360459000003,,,,,,609.835319400001,609.9353995000001,610.135450400001,611.0361568000008,None,0,,,,232632,001,2024-05-15_17h30.46.805,nBack,2022.2.5,60.12213209910982,
,N,None,A,,,,,0,31,31,31,,,,,,,,,11878,,,,,,,613.7368778,,,,,,,612.5360459000003,612.6356784,612.8358079999998,613.7368778,None,1,,,,232632,001,2024-05-15_17h30.46.805,nBack,2022.2.5,60.12213209910982,
,N,None,V,,,,,0,32,32,32,,,,,,,,,11950,,,,,,,616.4353929000008,617.9362437,,,,,,615.2526770000004,615.3357716999999,615.5532921000013,616.4353929000008,None,1,,,,232632,001,2024-05-15_17h30.46.805,nBack,2022.2.5,60.12213209910982,
,Y,z,A,,,,,0,33,33,33,,,,,,,,,11989,,,,,,,618.5689574000007,,,,,,,617.9362437,618.0360161000008,618.2359197000005,,z,1,0.5166965000007622,,,232632,001,2024-05-15_17h30.46.805,nBack,2022.2.5,60.12213209910982,
,N,None,C,,,,,0,34,34,34,,,,,,,,,12062,,,,,,,621.2696582000008,622.7694393000002,,,,,,620.0692056000007,620.1692702,620.3690885000015,621.2696582000008,None,1,,,,232632,001,2024-05-15_17h30.46.805,nBack,2022.2.5,60.12213209910982,
,N,None,X,,,,,0,35,35,35,,,,,,,,,12135,,,,,,,623.9697938000008,625.4706361000008,,,,,,622.7694393000002,622.8692428000013,623.0695266000002,623.9697938000008,None,1,,,,232632,001,2024-05-15_17h30.46.805,nBack,2022.2.5,60.12213209910982,
,N,None,A,,,,,0,36,36,36,,,,,,,,,12208,,,,,,,626.6695734000004,628.1695242000005,,,,,,625.4706361000008,625.5694723000015,625.7874007999999,626.6695734000004,None,1,,,,232632,001,2024-05-15_17h30.46.805,nBack,2022.2.5,60.12213209910982,
,N,None,B,,,,,0,37,37,37,,,,,,,,,12281,,,,,,,629.3694468000012,630.8695249000011,,,,,,628.1695242000005,628.2694874000008,628.4692684000001,629.3694468000012,None,1,,,,232632,001,2024-05-15_17h30.46.805,nBack,2022.2.5,60.12213209910982,
,Y,z,A,,,,,0,38,38,38,,,,,,,,,12307,,,,,,,631.2864793000008,632.7867439000001,,,,,,630.8695249000011,630.9697182,631.1694880000014,,z,1,0.29297070000029635,,,232632,001,2024-05-15_17h30.46.805,nBack,2022.2.5,60.12213209910982,
,Y,z,B,,,,,0,39,39,39,,,,,,,,,12331,,,,,,,633.1703725000007,634.6697797000015,,,,,,632.7867439000001,632.8863083000015,633.0868509000011,,z,1,0.25597499999821594,,,232632,001,2024-05-15_17h30.46.805,nBack,2022.2.5,60.12213209910982,
,N,None,C,,,,,0,40,40,40,,,,,,,,,12404,,,,,,,635.8714869000014,,,,,,,634.6697797000015,634.7698789000005,634.9708128000002,635.8714869000014,None,1,,,,232632,001,2024-05-15_17h30.46.805,nBack,2022.2.5,60.12213209910982,
,Y,z,B,,,,,0,41,41,41,,,,,,,,,12476,,,,,,,638.5699632000014,640.0700508999998,,,,,,637.3869887000001,637.4696282000004,637.6891364000003,638.5699632000014,None,0,,,,232632,001,2024-05-15_17h30.46.805,nBack,2022.2.5,60.12213209910982,
,N,None,A,,,,,0,42,42,42,,,,,,,,,12549,,,,,,,641.2709493000002,642.7697320000007,,,,,,640.0700508999998,640.1699292000012,640.3700184999998,641.2709493000002,None,1,,,,232632,001,2024-05-15_17h30.46.805,nBack,2022.2.5,60.12213209910982,
,N,None,W,,,,,0,43,43,43,,,,,,,,,12622,,,,,,,643.9703448,645.4699619000003,,,,,,642.7697320000007,642.8698505000011,643.0699586999999,643.9703448,None,1,,,,232632,001,2024-05-15_17h30.46.805,nBack,2022.2.5,60.12213209910982,
,N,None,B ,,,,,0,44,44,44,,,,,,,,,12695,,,,,,,646.6699231000002,,,,,,,645.4699619000003,645.5699593000008,645.7698623000015,646.6699231000002,None,1,,,,232632,001,2024-05-15_17h30.46.805,nBack,2022.2.5,60.12213209910982,
,Y,z,W,,,,,0,45,45,45,,,,,,,,,12719,,,,,,,648.5540646000009,650.0539919000003,,,,,,648.1702928000013,648.2703039000007,648.4702193000012,,z,1,0.26643159999912314,,,232632,001,2024-05-15_17h30.46.805,nBack,2022.2.5,60.12213209910982,
,Y,z,B ,,,,,0,46,46,46,,,,,,,,,12742,,,,,,,650.421021600001,651.9206049000004,,,,,,650.0539919000003,650.1536788000012,650.3539861999998,,z,1,0.2449983999995311,,,232632,001,2024-05-15_17h30.46.805,nBack,2022.2.5,60.12213209910982,
,N,None,A,,,,,0,47,47,47,,,,,,,,,12815,,,,,,,653.1210437000009,654.6206514000005,,,,,,651.9206049000004,652.0216627000009,652.2214483000007,653.1210437000009,None,1,,,,232632,001,2024-05-15_17h30.46.805,nBack,2022.2.5,60.12213209910982,
,N,None,A,,,,,0,48,48,48,,,,,,,,,12856,,,,,,,655.2882581000013,,,,,,,654.6206514000005,654.7217102000013,654.921987400001,,z,0,0.5387529999989056,,,232632,001,2024-05-15_17h30.46.805,nBack,2022.2.5,60.12213209910982,
,N,None,W,,,,,0,49,49,49,,,,,,,,,12928,,,,,,,658.0040895000002,,,,,,,656.8043462000005,656.8881962000014,657.1036650000005,,None,1,,,,232632,001,2024-05-15_17h30.46.805,nBack,2022.2.5,60.12213209910982,
,Y,z,A,,,,,0,50,50,50,,,,,,,,,12985,,,,,,,660.4378906000002,661.9385661000015,,,,,,659.5040016000003,659.5705154000007,659.8040744000009,,z,1,0.8397110999976576,,,232632,001,2024-05-15_17h30.46.805,nBack,2022.2.5,60.12213209910982,
,Y,z,W,,,,,0,51,51,51,,,,,,,,,13058,,,,,,,663.1390578999999,,,,,,,661.9385661000015,662.0378882000005,662.2374759000013,663.1390578999999,None,0,,,,232632,001,2024-05-15_17h30.46.805,nBack,2022.2.5,60.12213209910982,
,N,None,V,,,,,0,52,52,52,,,,,,,,,13130,,,,,,,665.8390009000013,,,,,,,664.6552855000009,664.7374708000007,664.9547155,665.8390009000013,None,1,,,,232632,001,2024-05-15_17h30.46.805,nBack,2022.2.5,60.12213209910982,
,N,None,B,,,,,0,53,53,53,,,,,,,,,13201,,,,,,,668.5211830000007,670.0219215000016,,,,,,667.3544264000011,667.4210089000007,667.6544859000005,668.5211830000007,None,1,,,,232632,001,2024-05-15_17h30.46.805,nBack,2022.2.5,60.12213209910982,
,N,None,Y,,,,,0,54,54,54,,,,,,,,,13274,,,,,,,671.2379587000014,672.7376882000008,,,,,,670.0377657000008,670.1212517000004,670.3377426000006,671.2215627000005,None,1,,,,232632,001,2024-05-15_17h30.46.805,nBack,2022.2.5,60.12213209910982,
,N,None,Y,,,,,0,55,55,55,,,,,,,,,13347,,,,,,,673.9400614000006,,,,,,,672.7376882000008,672.8378234000011,673.0376840000008,673.9400614000006,None,1,,,,232632,001,2024-05-15_17h30.46.805,nBack,2022.2.5,60.12213209910982,
,N,None,V,,,,,0,56,56,56,,,,,,,,,13419,,,,,,,676.6382063000001,678.1404379000014,,,,,,675.4550261000004,675.5379603000001,675.7545091000011,676.6382063000001,None,1,,,,232632,001,2024-05-15_17h30.46.805,nBack,2022.2.5,60.12213209910982,
,N,None,V,,,,,0,57,57,57,,,,,,,,,13490,,,,,,,679.3548655000013,,,,,,,678.1404379000014,678.2578902000005,678.4548236999999,,None,1,,,,232632,001,2024-05-15_17h30.46.805,nBack,2022.2.5,60.12213209910982,
,Y,z,V,,,,,0,58,58,58,,,,,,,,,13515,,,,,,,681.2553492000006,682.7555087000001,,,,,,680.8547927,680.9215655000007,681.1551079000001,,z,1,0.30279130000053556,,,232632,001,2024-05-15_17h30.46.805,nBack,2022.2.5,60.12213209910982,
,N,None,A,,,,,0,59,59,59,,,,,,,,,13588,,,,,,,683.9551376,685.4554275999999,,,,,,682.7555087000001,682.8553368000012,683.0552498000015,683.9551376,None,1,,,,232632,001,2024-05-15_17h30.46.805,nBack,2022.2.5,60.12213209910982,
,N,None,B,,,,,0,60,60,60,,,,,,,,,13661,,,,,,,686.6552804000003,,,,,,,685.4554275999999,685.5553754000011,685.7553094000014,686.6552804000003,None,1,,,,232632,001,2024-05-15_17h30.46.805,nBack,2022.2.5,60.12213209910982,
,Y,z,A,,,,,0,61,61,61,,,,,,,,,13684,,,,,,,688.5222021999998,690.0220269000001,,,,,,688.1552652999999,688.2557491000007,688.4553859000007,,z,1,0.23754509999889706,,,232632,001,2024-05-15_17h30.46.805,nBack,2022.2.5,60.12213209910982,
,Y,z,B,,,,,0,62,62,62,,,,,,,,,13708,,,,,,,690.4058185000013,691.9059885000006,,,,,,690.0220269000001,690.1064731000006,690.3226156000001,,z,1,0.279815799998687,,,232632,001,2024-05-15_17h30.46.805,nBack,2022.2.5,60.12213209910982,
,Y,z,A,,,,,0,63,63,63,,,,,,,,,13780,,,,,,,693.1073351000014,,,,,,,691.9059885000006,691.9887596000008,692.2069244000013,693.0886417000002,None,0,,,,232632,001,2024-05-15_17h30.46.805,nBack,2022.2.5,60.12213209910982,
,Y,z,B,,,,,0,64,64,64,,,,,,,,,13810,,,,,,,695.1054990000011,696.6062158000004,,,,,,694.6221983000014,694.7056037000002,694.9226788000014,,z,1,0.37839270000040415,,,232632,001,2024-05-15_17h30.46.805,nBack,2022.2.5,60.12213209910982,
,N,None,C,,,,,0,65,65,65,,,,,,,,,13883,,,,,,,697.8221868,,,,,,,696.6062158000004,696.7074680000005,696.9074928999999,,None,1,,,,232632,001,2024-05-15_17h30.46.805,nBack,2022.2.5,60.12213209910982,
,N,None,V,,,,,0,66,66,66,,,,,,,,,13954,,,,,,,700.489302,701.9893909000002,,,,,,699.3223398000009,699.3893852000001,699.6229717000006,700.489302,None,1,,,,232632,001,2024-05-15_17h30.46.805,nBack,2022.2.5,60.12213209910982,
,N,None,W,,,,,0,67,67,67,,,,,,,,,14027,,,,,,,703.1893810000001,704.6896788000013,,,,,,701.9893909000002,702.0891221000002,702.2891979000015,703.1893810000001,None,1,,,,232632,001,2024-05-15_17h30.46.805,nBack,2022.2.5,60.12213209910982,
,N,None,W,,,,,0,68,68,68,,,,,,,,,14100,,,,,,,705.889380300001,707.3899755000002,,,,,,704.6896788000013,704.7899524000004,704.9892744000008,705.889380300001,None,1,,,,232632,001,2024-05-15_17h30.46.805,nBack,2022.2.5,60.12213209910982,
,Y,z,W,,,,,0,69,69,69,,,,,,,,,14125,,,,,,,707.790411,,,,,,,707.3899755000002,707.4892983999998,707.6896973000003,,z,1,0.26940300000023853,,,232632,001,2024-05-15_17h30.46.805,nBack,2022.2.5,60.12213209910982,
,N,None,A,,,,,0,70,70,70,,,,,,,,,14197,,,,,,,710.489900300001,711.9900676000016,,,,,,709.3064603000003,709.3899618000014,709.6066424,710.489900300001,None,1,,,,232632,001,2024-05-15_17h30.46.805,nBack,2022.2.5,60.12213209910982,
,Y,z,W,,,,,0,71,71,71,,,,,,,,,14248,,,,,,,712.8231544000009,714.3228629000005,,,,,,711.9900676000016,712.0893192000003,712.2895672000013,,z,1,0.7089564999987488,,,232632,001,2024-05-15_17h30.46.805,nBack,2022.2.5,60.12213209910982,
,Y,z,A,,,,,0,72,72,72,,,,,,,,,14289,,,,,,,714.9895734000002,716.4895799000005,,,,,,714.3228629000005,714.4227423000011,714.6229872000004,,z,1,0.5359838999993372,,,232632,001,2024-05-15_17h30.46.805,nBack,2022.2.5,60.12213209910982,
,N,None,X,,,,,0,73,73,73,,,,,,,,,14362,,,,,,,717.6897277000007,719.1900796999998,,,,,,716.4895799000005,716.5899555000015,716.789745600001,717.6897277000007,None,1,,,,232632,001,2024-05-15_17h30.46.805,nBack,2022.2.5,60.12213209910982,
,N,None,Y,,,,,0,74,74,74,,,,,,,,,14435,,,,,,,720.3897476000002,721.8899306000003,,,,,,719.1900796999998,719.289711200001,719.4896567000014,720.3897476000002,None,1,,,,232632,001,2024-05-15_17h30.46.805,nBack,2022.2.5,60.12213209910982,
,N,None,C,,,,,0,75,75,75,,,,,,,,,14508,,,,,,,723.090113100001,724.5899145000003,,,,,,721.8899306000003,721.9905036,722.1905146000008,723.090113100001,None,1,,,,232632,001,2024-05-15_17h30.46.805,nBack,2022.2.5,60.12213209910982,
,N,None,X,,,,,0,76,76,76,,,,,,,,,14581,,,,,,,725.7899262999999,727.2900565,,,,,,724.5899145000003,724.6898722000005,724.8900827000016,725.7899262999999,None,1,,,,232632,001,2024-05-15_17h30.46.805,nBack,2022.2.5,60.12213209910982,
,N,None,B,,,,,0,77,77,77,,,,,,,,,14653,,,,,,,728.4900429999998,,,,,,,727.2900565,727.3900314000002,727.5899968000012,,None,1,,,,232632,001,2024-05-15_17h30.46.805,nBack,2022.2.5,60.12213209910982,
,Y,z,X,,,,,0,78,78,78,,,,,,,,,14688,,,,,,,730.5570249000011,,,,,,,729.990056300001,730.0901321000001,730.2902312000006,,z,1,0.4485711999986961,,,232632,001,2024-05-15_17h30.46.805,nBack,2022.2.5,60.12213209910982,
,Y,z,B,,,,,0,79,79,79,,,,,,,,,14710,,,,,,,732.4073002000005,733.9069574000005,,,,,,732.0569654999999,732.1575339999999,732.3568584000004,,z,1,0.22715429999880143,,,232632,001,2024-05-15_17h30.46.805,nBack,2022.2.5,60.12213209910982,
,N,None,B,,,,,0,80,80,80,,,,,,,,,14737,,,,,,,734.3410230000009,735.841158700001,,,,,,733.9069574000005,734.0069647,734.206983,,z,0,0.30372559999887017,,,232632,001,2024-05-15_17h30.46.805,nBack,2022.2.5,60.12213209910982,
,N,None,V,,,,,0,81,81,81,,,,,,,,,14809,,,,,,,737.0407828000007,738.5413066000001,,,,,,735.841158700001,735.9237109000005,736.1408747000005,737.0242214999998,None,1,,,,232632,001,2024-05-15_17h30.46.805,nBack,2022.2.5,60.12213209910982,
,Y,z,B,,,,,0,82,82,82,,,,,,,,,14838,,,,,,,739.0087898000002,,,,,,,738.5413066000001,738.6406969,738.8409904,,z,1,0.35007319999931497,,,232632,001,2024-05-15_17h30.46.805,nBack,2022.2.5,60.12213209910982,
,N,None,C,,,,,0,83,83,83,,,,,,,,,14910,,,,,,,741.7082754000003,743.2081668999999,,,,,,740.524179,740.6078648000002,740.824076500001,741.7082754000003,None,1,,,,232632,001,2024-05-15_17h30.46.805,nBack,2022.2.5,60.12213209910982,
,N,None,Y,,,,,0,84,84,84,,,,,,,,,14983,,,,,,,744.4077455000006,745.9078170000012,,,,,,743.2081668999999,743.3077626000013,743.5077829000002,744.4077455000006,None,1,,,,232632,001,2024-05-15_17h30.46.805,nBack,2022.2.5,60.12213209910982,
,Y,z,C,,,,,0,85,85,85,,,,,,,,,15010,,,,,,,746.3418043000001,747.8417018,,,,,,745.9078170000012,746.0075164999998,746.2075634000012,,z,1,0.30124550000073214,,,232632,001,2024-05-15_17h30.46.805,nBack,2022.2.5,60.12213209910982,
,N,None,B,,,,,0,86,86,86,,,,,,,,,15083,,,,,,,749.0429736000006,,,,,,,747.8417018,747.9417803000015,748.1420586000004,749.0429736000006,None,1,,,,232632,001,2024-05-15_17h30.46.805,nBack,2022.2.5,60.12213209910982,
,N,None,X,,,,,0,87,87,87,,,,,,,,,15154,,,,,,,751.7415301000001,753.2416692000006,,,,,,750.5575499000006,750.6414781000003,750.858174500001,,None,1,,,,232632,001,2024-05-15_17h30.46.805,nBack,2022.2.5,60.12213209910982,
,Y,z,B,,,,,0,88,88,88,,,,,,,,,15226,,,,,,,754.4415083000004,755.9417061000004,,,,,,753.2416692000006,753.3244339000012,753.5417324000009,754.4245295000001,None,0,,,,232632,001,2024-05-15_17h30.46.805,nBack,2022.2.5,60.12213209910982,
,N,None,C,,,,,0,89,89,89,,,,,,,,,15269,,,,,,,756.6424055000007,,,,,,,755.9417061000004,756.0244835000012,756.2417132999999,,z,0,0.5977354999995441,,,232632,001,2024-05-15_17h30.46.805,nBack,2022.2.5,60.12213209910982,
,N,None,Y,,,,,0,90,90,90,,,,,,,,,15341,,,,,,,759.3427906000015,,,,,,,758.1579277000001,758.2419544000004,758.457980000001,759.3427906000015,None,1,,,,232632,001,2024-05-15_17h30.46.805,nBack,2022.2.5,60.12213209910982,
,N,None,Y,,,,,0,91,91,91,,,,,,,,,15412,,,,,,,762.0417140999998,763.5417527999998,,,,,,760.8583415000012,760.9251687000014,761.1580400000003,762.0253462000001,None,1,,,,232632,001,2024-05-15_17h30.46.805,nBack,2022.2.5,60.12213209910982,
,N,None,C,,,,,0,92,92,92,,,,,,,,,15485,,,,,,,764.742189300001,766.2425421000007,,,,,,763.5417527999998,763.6418623999998,763.8427159000003,764.742189300001,None,1,,,,232632,001,2024-05-15_17h30.46.805,nBack,2022.2.5,60.12213209910982,
,N,None,W,,,,,0,93,93,93,,,,,,,,,15558,,,,,,,767.4423062000005,768.9424414000005,,,,,,766.2425421000007,766.3417353000004,766.5419892999998,767.4423062000005,None,1,,,,232632,001,2024-05-15_17h30.46.805,nBack,2022.2.5,60.12213209910982,
,N,None,X,,,,,0,94,94,94,,,,,,,,,15630,,,,,,,770.1251791000013,771.6257094000011,,,,,,768.9424414000005,769.0250522000006,769.2418863000003,770.1251791000013,None,1,,,,232632,001,2024-05-15_17h30.46.805,nBack,2022.2.5,60.12213209910982,
,N,None,V,,,,,0,95,95,95,,,,,,,,,15704,,,,,,,772.8418734000006,774.3421362000008,,,,,,771.6421609000008,771.7417335000009,771.9420028000004,772.8418734000006,None,1,,,,232632,001,2024-05-15_17h30.46.805,nBack,2022.2.5,60.12213209910982,
,N,None,C,,,,,0,96,96,96,,,,,,,,,15776,,,,,,,775.5284852000004,,,,,,,774.3421362000008,774.4264094000009,774.6420615000006,775.5284852000004,None,1,,,,232632,001,2024-05-15_17h30.46.805,nBack,2022.2.5,60.12213209910982,
,N,None,B,,,,,0,97,97,97,,,,,,,,,15848,,,,,,,778.2426510000005,,,,,,,777.0425516000014,777.1424751000013,777.3422964000001,,None,1,,,,232632,001,2024-05-15_17h30.46.805,nBack,2022.2.5,60.12213209910982,
,Y,z,C,,,,,0,98,98,98,,,,,,,,,15901,,,,,,,780.6089238000004,782.1091850000012,,,,,,779.742463300001,779.8424657000014,780.0428533000013,,z,1,0.7348440999994637,,,232632,001,2024-05-15_17h30.46.805,nBack,2022.2.5,60.12213209910982,
,N,None,C,,,,,0,99,99,99,,,,,,,,,15974,,,,,,,783.3093354000011,784.8095252000003,,,,,,782.1091850000012,782.2091906000005,782.4095014000013,783.3093354000011,None,1,,,,232632,001,2024-05-15_17h30.46.805,nBack,2022.2.5,60.12213209910982,
,N,None,X,,,,,0,100,100,100,,,,,,,,,16047,,,,,,,786.0097905000002,787.5095713999999,,,,,,784.8095252000003,784.9096311000012,785.1092525000004,786.0097905000002,None,1,,,,232632,001,2024-05-15_17h30.46.805,nBack,2022.2.5,60.12213209910982,
,Y,z,C,,,,,0,101,101,101,,,,,,,,,16078,,,,,,,788.0095784000005,789.5096333000001,,,,,,787.5095713999999,787.6103198000001,787.8095948999999,,z,1,0.38438229999883333,,,232632,001,2024-05-15_17h30.46.805,nBack,2022.2.5,60.12213209910982,
,N,None,V,,,,,0,102,102,102,,,,,,,,,16151,,,,,,,790.7096061000011,792.2096391000014,,,,,,789.5096333000001,789.609566000001,789.8149002999999,790.7096061000011,None,1,,,,232632,001,2024-05-15_17h30.46.805,nBack,2022.2.5,60.12213209910982,
,Y,z,C,,,,,0,103,103,103,,,,,,,,,16221,,,,,,,793.4242376000002,,,,,,,792.2096391000014,792.3094994000003,792.5185007,,None,0,,,,232632,001,2024-05-15_17h30.46.805,nBack,2022.2.5,60.12213209910982,
,N,None,C,,,,,0,104,104,104,,,,,,,,,16277,,,,,,,796.1240933000008,,,,,,,795.0348733999999,795.0348733999999,795.3749435000009,,None,1,,,,232632,001,2024-05-15_17h30.46.805,nBack,2022.2.5,60.12213209910982,
,N,None,W,,,,,0,105,105,105,,,,,,,,,16348,,,,,,,798.8264120000003,,,,,,,797.6284656000007,797.7152556000001,797.9434037999999,,None,1,,,,232632,001,2024-05-15_17h30.46.805,nBack,2022.2.5,60.12213209910982,
,N,None,Y,,,,,0,106,106,106,,,,,,,,,16420,,,,,,,801.5106836000014,803.0103497,,,,,,800.3290285000003,800.4104083000002,800.6433035000009,801.5106836000014,None,1,,,,232632,001,2024-05-15_17h30.46.805,nBack,2022.2.5,60.12213209910982,
,N,None,B,,,,,0,107,107,107,,,,,,,,,16493,,,,,,,804.2101522000012,805.7107777000001,,,,,,803.0103497,803.1104032000003,803.3104345000011,804.2101522000012,None,1,,,,232632,001,2024-05-15_17h30.46.805,nBack,2022.2.5,60.12213209910982,
,Y,z,Y,,,,,0,108,108,108,,,,,,,,,16549,,,,,,,806.6274289000012,808.1283208000004,,,,,,805.7107777000001,805.8098352000015,806.0107701000015,,z,1,0.7923943000005238,,,232632,001,2024-05-15_17h30.46.805,nBack,2022.2.5,60.12213209910982,
,N,None,V,,,,,0,109,109,109,,,,,,,,,16622,,,,,,,809.3437138000008,,,,,,,808.1283208000004,808.2287782000003,808.4433411999998,,None,1,,,,232632,001,2024-05-15_17h30.46.805,nBack,2022.2.5,60.12213209910982,
,N,None,V,,,,,0,110,110,110,,,,,,,,,16694,,,,,,,812.027908,813.5270331000011,,,,,,810.8437021000009,810.9275591000005,811.1435834000004,812.027908,None,1,,,,232632,001,2024-05-15_17h30.46.805,nBack,2022.2.5,60.12213209910982,
,N,None,Y,,,,,0,111,111,111,,,,,,,,,16767,,,,,,,814.7272398000005,816.2270530000005,,,,,,813.5270331000011,813.6271885000006,813.8272847000007,814.7272398000005,None,1,,,,232632,001,2024-05-15_17h30.46.805,nBack,2022.2.5,60.12213209910982,
,N,None,A,,,,,0,112,112,112,,,,,,,,,16839,,,,,,,817.4108774000015,818.9109813000014,,,,,,816.2270530000005,816.3105907999998,816.5279330000012,817.4108774000015,None,1,,,,232632,001,2024-05-15_17h30.46.805,nBack,2022.2.5,60.12213209910982,
,Y,z,Y,,,,,0,113,113,113,,,,,,,,,16865,,,,,,,819.3274701999999,820.8281857000002,,,,,,818.9274786000005,819.0111644000008,819.2274997000004,,z,1,0.2974985000000743,,,232632,001,2024-05-15_17h30.46.805,nBack,2022.2.5,60.12213209910982,
,N,None,Y,,,,,0,114,114,114,,,,,,,,,16937,,,,,,,822.0109788999998,823.5109017000013,,,,,,820.8281857000002,820.9109513000003,821.1441105000013,822.0109788999998,None,1,,,,232632,001,2024-05-15_17h30.46.805,nBack,2022.2.5,60.12213209910982,
,N,None,C,,,,,0,115,115,115,,,,,,,,,17010,,,,,,,824.7112406000015,826.2111870000008,,,,,,823.5109017000013,823.6109321000004,823.8105879000013,824.7112406000015,None,1,,,,232632,001,2024-05-15_17h30.46.805,nBack,2022.2.5,60.12213209910982,
,Y,z,Y,,,,,0,116,116,116,,,,,,,,,17083,,,,,,,827.4107691999998,828.9110803000003,,,,,,826.2111870000008,826.3110856000003,826.5109984999999,827.4107691999998,None,0,,,,232632,001,2024-05-15_17h30.46.805,nBack,2022.2.5,60.12213209910982,
,N,None,Y,,,,,0,117,117,117,,,,,,,,,17156,,,,,,,830.1110820000013,831.6110374,,,,,,828.9110803000003,829.010822100001,829.2109386000011,830.1110820000013,None,1,,,,232632,001,2024-05-15_17h30.46.805,nBack,2022.2.5,60.12213209910982,
,N,None,A,,,,,0,118,118,118,,,,,,,,,17201,,,,,,,832.3444012,833.8444200000013,,,,,,831.6110374,831.7116732000013,831.9116104000004,,z,0,0.6110202999989269,,,232632,001,2024-05-15_17h30.46.805,nBack,2022.2.5,60.12213209910982,
,N,None,A,,,,,0,119,119,119,,,,,,,,,17273,,,,,,,835.044660900001,836.5446620000002,,,,,,833.8444200000013,833.9279853000007,834.1450866000014,835.0283264999998,None,1,,,,232632,001,2024-05-15_17h30.46.805,nBack,2022.2.5,60.12213209910982,
,N,None,C,,,,,0,120,120,120,,,,,,,,,17346,,,,,,,837.7447831999998,839.2447452000015,,,,,,836.5446620000002,836.6445122000005,836.8444522999998,837.7447831999998,None,1,,,,232632,001,2024-05-15_17h30.46.805,nBack,2022.2.5,60.12213209910982,
,N,None,Y,,,,,0,121,121,121,,,,,,,,,17419,,,,,,,840.4451970000009,841.9449421000008,,,,,,839.2447452000015,839.3450154000002,839.5449886000006,840.4451970000009,None,1,,,,232632,001,2024-05-15_17h30.46.805,nBack,2022.2.5,60.12213209910982,
,N,None,V,,,,,0,122,122,122,,,,,,,,,17492,,,,,,,843.1454857000008,844.6459400000003,,,,,,841.9449421000008,842.0460923999999,842.2449881000011,843.1454857000008,None,1,,,,232632,001,2024-05-15_17h30.46.805,nBack,2022.2.5,60.12213209910982,
,N,None,B,,,,,0,123,123,123,,,,,,,,,17565,,,,,,,845.8450182000015,847.3451810000006,,,,,,844.6459400000003,844.7450924000004,844.9454108999998,845.8450182000015,None,1,,,,232632,001,2024-05-15_17h30.46.805,nBack,2022.2.5,60.12213209910982,
,N,None,B,,,,,0,124,124,124,,,,,,,,,17638,,,,,,,848.5450356000001,850.0454172999998,,,,,,847.3451810000006,847.4448549000008,847.6451108000001,848.5450356000001,None,1,,,,232632,001,2024-05-15_17h30.46.805,nBack,2022.2.5,60.12213209910982,
,N,None,X,,,,,0,125,125,125,,,,,,,,,17711,,,,,,,851.2450594000002,852.7453059,,,,,,850.0454172999998,850.1450733000001,850.345153100001,851.2450594000002,None,1,,,,232632,001,2024-05-15_17h30.46.805,nBack,2022.2.5,60.12213209910982,
,N,None,A,,,,,0,126,126,126,,,,,,,,,17784,,,,,,,853.9453942,855.4454524000012,,,,,,852.7453059,852.8454550000006,853.0459639000001,853.9453942,None,1,,,,232632,001,2024-05-15_17h30.46.805,nBack,2022.2.5,60.12213209910982,
,Y,z,X,,,,,0,127,127,127,,,,,,,,,17826,,,,,,,856.1292097000005,,,,,,,855.4454524000012,855.5455046000006,855.7455224000005,,z,1,0.5612315999987914,,,232632,001,2024-05-15_17h30.46.805,nBack,2022.2.5,60.12213209910982,
,Y,z,A,,,,,0,128,128,128,,,,,,,,,17851,,,,,,,858.0287652000006,859.5289948999998,,,,,,857.6288887999999,857.7123670000001,857.9297122000007,,z,1,0.28630879999946046,,,232632,001,2024-05-15_17h30.46.805,nBack,2022.2.5,60.12213209910982,
,N,None,B,,,,,0,129,129,129,,,,,,,,,17924,,,,,,,860.7292418000015,,,,,,,859.5289948999998,859.6288019000003,859.8289271000012,860.7292418000015,None,1,,,,232632,001,2024-05-15_17h30.46.805,nBack,2022.2.5,60.12213209910982,
,N,None,C,,,,,0,130,130,130,,,,,,,,,17997,,,,,,,863.4293505000005,864.9297444000003,,,,,,862.2289240999999,862.3289244000007,862.5293629000007,863.4293505000005,None,1,,,,232632,001,2024-05-15_17h30.46.805,nBack,2022.2.5,60.12213209910982,
,N,None,Y,,,,,0,131,131,131,,,,,,,,,18070,,,,,,,866.1294550000002,,,,,,,864.9297444000003,865.0298563000015,865.2303622,866.1294550000002,None,1,,,,232632,001,2024-05-15_17h30.46.805,nBack,2022.2.5,60.12213209910982,
,N,None,X,,,,,0,132,132,132,,,,,,,,,18143,,,,,,,868.8297837999999,,,,,,,867.6292547000012,867.7296056000014,867.9294148000008,868.8297837999999,None,1,,,,232632,001,2024-05-15_17h30.46.805,nBack,2022.2.5,60.12213209910982,
,N,None,W,,,,,0,133,133,133,,,,,,,,,18216,,,,,,,871.5301169000013,873.0294555,,,,,,870.3299781000005,870.4294884999999,870.6294877,871.5301169000013,None,1,,,,232632,001,2024-05-15_17h30.46.805,nBack,2022.2.5,60.12213209910982,
,Y,z,X,,,,,0,134,134,134,,,,,,,,,18244,,,,,,,873.4795442000013,874.9804548000011,,,,,,873.0294555,873.1129928000009,873.3295419000005,,z,1,0.34576669999842125,,,232632,001,2024-05-15_17h30.46.805,nBack,2022.2.5,60.12213209910982,
,N,None,V,,,,,0,135,135,135,,,,,,,,,18316,,,,,,,876.1630054000016,877.6630691000009,,,,,,874.9804548000011,875.0629657999998,875.2797993000004,876.1630054000016,None,1,,,,232632,001,2024-05-15_17h30.46.805,nBack,2022.2.5,60.12213209910982,
,N,None,C,,,,,0,136,136,136,,,,,,,,,18389,,,,,,,878.8633077000013,880.3632191000015,,,,,,877.6630691000009,877.7634163000002,877.9631249000013,878.8633077000013,None,1,,,,232632,001,2024-05-15_17h30.46.805,nBack,2022.2.5,60.12213209910982,
,N,None,C,,,,,0,137,137,137,,,,,,,,,18462,,,,,,,881.5632795000001,883.0634320999998,,,,,,880.3632191000015,880.4633121000006,880.6635913000009,881.5632795000001,None,1,,,,232632,001,2024-05-15_17h30.46.805,nBack,2022.2.5,60.12213209910982,
,N,None,X,,,,,0,138,138,138,,,,,,,,,18535,,,,,,,884.2634460999998,885.7634569000002,,,,,,883.0634320999998,883.1631472000008,883.3638867000009,884.2634460999998,None,1,,,,232632,001,2024-05-15_17h30.46.805,nBack,2022.2.5,60.12213209910982,
,N,None,Y,,,,,0,139,139,139,,,,,,,,,18608,,,,,,,886.9639636000011,888.4636790000004,,,,,,885.7634569000002,885.8633976000001,886.0634795000005,886.9639636000011,None,1,,,,232632,001,2024-05-15_17h30.46.805,nBack,2022.2.5,60.12213209910982,
,N,None,A,,,,,0,140,140,140,,,,,,,,,18681,,,,,,,889.663765700001,891.1636377000013,,,,,,888.4636790000004,888.5636497000014,888.7636980000007,889.663765700001,None,1,,,,232632,001,2024-05-15_17h30.46.805,nBack,2022.2.5,60.12213209910982,
,N,None,V,,,,,0,141,141,141,,,,,,,,,18754,,,,,,,892.3637760000001,893.8643708,,,,,,891.1636377000013,891.2637005000015,891.4637163000007,892.3637760000001,None,1,,,,232632,001,2024-05-15_17h30.46.805,nBack,2022.2.5,60.12213209910982,
,Y,z,A,,,,,0,142,142,142,,,,,,,,,18827,,,,,,,895.0640555000009,896.5640412000012,,,,,,893.8643708,893.9637097000013,894.164143,895.0640555000009,None,0,,,,232632,001,2024-05-15_17h30.46.805,nBack,2022.2.5,60.12213209910982,
,Y,z,V,,,,,0,143,143,143,,,,,,,,,18900,,,,,,,897.7640944000013,899.2642673999999,,,,,,896.5640412000012,896.6640845000002,896.864285900001,897.7640944000013,None,0,,,,232632,001,2024-05-15_17h30.46.805,nBack,2022.2.5,60.12213209910982,
,N,None,W,,,,,0,144,144,144,,,,,,,,,18973,,,,,,,900.4640368,901.9639728000002,,,,,,899.2642673999999,899.3645623000011,899.5648070000007,900.4640368,None,1,,,,232632,001,2024-05-15_17h30.46.805,nBack,2022.2.5,60.12213209910982,
,Y,z,V,,,,,0,145,145,145,,,,,,,,,19010,,,,,,,902.564362000001,904.064128,,,,,,901.9639728000002,902.0638938000011,902.2640631000013,,z,1,0.4768276999984664,,,232632,001,2024-05-15_17h30.46.805,nBack,2022.2.5,60.12213209910982,
,N,None,Y,,,,,0,146,146,146,,,,,,,,,19083,,,,,,,905.2642108,906.7644095000014,,,,,,904.064128,904.1639816000006,904.3642267000014,905.2642108,None,1,,,,232632,001,2024-05-15_17h30.46.805,nBack,2022.2.5,60.12213209910982,
,,,,,,,,,,,,,,,,,,906.7644095000014,,,,,,,,,,,,,,,,,,,,,,,907.2644411000001,922.9607493000003,,,,,,,
