stimuli_letter,target,correct_key,Letter_stimulus,trialsOne.thisRepN,trialsOne.thisTrialN,trialsOne.thisN,trialsOne.thisIndex,trialsTwo.thisRepN,trialsTwo.thisTrialN,trialsTwo.thisN,trialsTwo.thisIndex,WelcomeScreenText.started,WelcomeInstructions.started,WelcomeScreenText.stopped,keyWelcome.started,keyWelcome.keys,keyWelcome.rt,text.started,text.stopped,eegtime,n_back_one.started,Key_one.started,n_back_one.stopped,Key_one.stopped,Key_one.keys,Key_one.corr,ISI.started,Key_one.rt,ISI.stopped,Intro_Block_two.started,Start_Block_One.started,Start_Block_One.keys,Start_Block_One.rt,Block_2_stimulus.started,key_Two.started,Block_2_stimulus.stopped,key_Two.stopped,key_Two.keys,key_Two.corr,key_Two.rt,GoodBye.started,GoodBye.stopped,participant,session,date,expName,psychopyVersion,frameRate,
,,,,,,,,,,,,28.61570040001243,30.610141900004237,30.627988200008986,31.610563700000057,z,13.400081899992074,,,,,,,,,,,,,,,,,,,,,,,,,,694541.,001,2024-05-16_14h07.05.728,nBack,2022.2.5,60.375827451788275,
V,None,None,,0,0,0,0,,,,,,,,,,,45.027547200006666,45.55081500000961,72,45.55081500000961,45.628035700006876,45.86116430000402,46.72787719999906,None,1,46.72787719999906,,,,,,,,,,,,,,,,694541.,001,2024-05-16_14h07.05.728,nBack,2022.2.5,60.375827451788275,
X,N,None,,0,1,1,1,,,,,,,,,,,,,145,48.22784490000049,48.32870320000802,48.528665600009845,,None,1,49.44413810000697,,,,,,,,,,,,,,,,694541.,001,2024-05-16_14h07.05.728,nBack,2022.2.5,60.375827451788275,
A,N,None,,0,2,2,2,,,,,,,,,,,,,217,50.94539720000466,51.02821460000996,51.244475200001034,52.128545700004906,None,1,52.128545700004906,,,,,,,,,,,,,,,,694541.,001,2024-05-16_14h07.05.728,nBack,2022.2.5,60.375827451788275,
A,Y,z,,0,3,3,3,,,,,,,,,,,,,261,53.62788280000677,53.7277238000097,53.92773229999875,,z,1,54.3457466000109,0.59295179999026,55.84710240000277,,,,,,,,,,,,,,694541.,001,2024-05-16_14h07.05.728,nBack,2022.2.5,60.375827451788275,
X,N,None,,0,4,4,4,,,,,,,,,,,,,333,55.84710240000277,55.928061500002514,56.161503399998765,57.02822659999947,None,1,57.02822659999947,,58.52831590001006,,,,,,,,,,,,,,694541.,001,2024-05-16_14h07.05.728,nBack,2022.2.5,60.375827451788275,
B,N,None,,0,5,5,5,,,,,,,,,,,,,406,58.52831590001006,58.62874810000358,58.82847410000977,59.72833160001028,None,1,59.72833160001028,,61.2288164000056,,,,,,,,,,,,,,694541.,001,2024-05-16_14h07.05.728,nBack,2022.2.5,60.375827451788275,
B,Y,z,,0,6,6,6,,,,,,,,,,,,,447,61.2288164000056,61.32825669999875,61.52863570000045,,z,1,61.89535450001131,0.5524798999831546,63.395087900004,,,,,,,,,,,,,,694541.,001,2024-05-16_14h07.05.728,nBack,2022.2.5,60.375827451788275,
X,N,None,,0,7,7,7,,,,,,,,,,,,,520,63.395087900004,63.495262500000536,63.69513740000548,64.59483000000182,None,1,64.59483000000182,,66.09535580000374,,,,,,,,,,,,,,694541.,001,2024-05-16_14h07.05.728,nBack,2022.2.5,60.375827451788275,
Y,N,None,,0,8,8,8,,,,,,,,,,,,,593,66.09535580000374,66.19512850001047,66.39584330000798,67.2951682999992,None,1,67.2951682999992,,68.7951616000064,,,,,,,,,,,,,,694541.,001,2024-05-16_14h07.05.728,nBack,2022.2.5,60.375827451788275,
Y,Y,z,,0,9,9,9,,,,,,,,,,,,,640,68.7951616000064,68.89537850000488,69.09537940000882,,z,1,69.56232209999871,0.6417480999953113,71.06218200000876,,,,,,,,,,,,,,694541.,001,2024-05-16_14h07.05.728,nBack,2022.2.5,60.375827451788275,
B,N,None,,0,10,10,10,,,,,,,,,,,,,713,71.06218200000876,71.16213780001272,71.36216160000185,72.26179950000369,None,1,72.26179950000369,,73.76215439999942,,,,,,,,,,,,,,694541.,001,2024-05-16_14h07.05.728,nBack,2022.2.5,60.375827451788275,
Y,N,None,,0,11,11,11,,,,,,,,,,,,,786,73.76215439999942,73.86213700000371,74.06211070000427,74.96224940000684,None,1,74.96224940000684,,76.46218100000988,,,,,,,,,,,,,,694541.,001,2024-05-16_14h07.05.728,nBack,2022.2.5,60.375827451788275,
V,N,None,,0,12,12,12,,,,,,,,,,,,,859,76.46218100000988,76.5628171999997,76.76217310001084,77.66217210001196,None,1,77.66217210001196,,79.16246460001275,,,,,,,,,,,,,,694541.,001,2024-05-16_14h07.05.728,nBack,2022.2.5,60.375827451788275,
C,N,None,,0,13,13,13,,,,,,,,,,,,,932,79.16246460001275,79.26214590000745,79.46261220000451,80.36227280000458,None,1,80.36227280000458,,81.86230750000686,,,,,,,,,,,,,,694541.,001,2024-05-16_14h07.05.728,nBack,2022.2.5,60.375827451788275,
C,Y,z,,0,14,14,14,,,,,,,,,,,,,985,81.86230750000686,81.9623816000094,82.16349380000611,,z,1,82.72932520000904,0.7347619999927701,84.22917470001266,,,,,,,,,,,,,,694541.,001,2024-05-16_14h07.05.728,nBack,2022.2.5,60.375827451788275,
V,N,None,,0,15,15,15,,,,,,,,,,,,,1058,84.22917470001266,84.32956769999873,84.5291631,85.42938690001029,None,1,85.42938690001029,,86.92918140000256,,,,,,,,,,,,,,694541.,001,2024-05-16_14h07.05.728,nBack,2022.2.5,60.375827451788275,
X,N,None,,0,16,16,16,,,,,,,,,,,,,1131,86.92918140000256,87.02946270001121,87.22921180000412,88.12927680001303,None,1,88.12927680001303,,89.62957780000579,,,,,,,,,,,,,,694541.,001,2024-05-16_14h07.05.728,nBack,2022.2.5,60.375827451788275,
Y,N,None,,0,17,17,17,,,,,,,,,,,,,1204,89.62957780000579,89.72946460000821,89.92929470000672,90.82967780000763,None,1,90.82967780000763,,92.32945930000278,,,,,,,,,,,,,,694541.,001,2024-05-16_14h07.05.728,nBack,2022.2.5,60.375827451788275,
C,N,None,,0,18,18,18,,,,,,,,,,,,,1277,92.32945930000278,92.42979840000044,92.62938810000196,93.52944760001265,None,1,93.52944760001265,,95.0295471999998,,,,,,,,,,,,,,694541.,001,2024-05-16_14h07.05.728,nBack,2022.2.5,60.375827451788275,
C,Y,z,,0,19,19,19,,,,,,,,,,,,,1330,95.0295471999998,95.12970220000716,95.33035160000145,,z,1,95.89638780000678,0.7420908999920357,97.39672730000166,,,,,,,,,,,,,,694541.,001,2024-05-16_14h07.05.728,nBack,2022.2.5,60.375827451788275,
A,N,None,,0,20,20,20,,,,,,,,,,,,,1403,97.39672730000166,97.49658770000678,97.69642659999954,98.59650610000244,None,1,98.59650610000244,,100.09638050000649,,,,,,,,,,,,,,694541.,001,2024-05-16_14h07.05.728,nBack,2022.2.5,60.375827451788275,
W,N,None,,0,21,21,21,,,,,,,,,,,,,1476,100.09638050000649,100.19667800000752,100.39664450001146,101.2966146000108,None,1,101.2966146000108,,102.79702690000704,,,,,,,,,,,,,,694541.,001,2024-05-16_14h07.05.728,nBack,2022.2.5,60.375827451788275,
X,N,None,,0,22,22,22,,,,,,,,,,,,,1549,102.79702690000704,102.89682980001089,103.09700630001316,103.99658390000695,None,1,103.99658390000695,,105.49713750000228,,,,,,,,,,,,,,694541.,001,2024-05-16_14h07.05.728,nBack,2022.2.5,60.375827451788275,
X,Y,z,,0,23,23,23,,,,,,,,,,,,,1622,105.49713750000228,105.59717870000168,105.7968419000099,106.6969889000029,None,0,106.6969889000029,,108.19711960000859,,,,,,,,,,,,,,694541.,001,2024-05-16_14h07.05.728,nBack,2022.2.5,60.375827451788275,
A,N,None,,0,24,24,24,,,,,,,,,,,,,1695,108.19711960000859,108.29674119999981,108.49674349999987,109.39706260000821,None,1,109.39706260000821,,,,,,,,,,,,,,,,694541.,001,2024-05-16_14h07.05.728,nBack,2022.2.5,60.375827451788275,
X,N,None,,0,25,25,25,,,,,,,,,,,,,1736,110.89686660000007,110.99666150000121,111.196895400004,,z,0,111.56355980000808,0.5369837999896845,113.06438200001139,,,,,,,,,,,,,,694541.,001,2024-05-16_14h07.05.728,nBack,2022.2.5,60.375827451788275,
X,Y,z,,0,26,26,26,,,,,,,,,,,,,1809,113.06438200001139,113.16365640000731,113.36364600001252,114.26359740000044,None,0,114.26359740000044,,,,,,,,,,,,,,,,694541.,001,2024-05-16_14h07.05.728,nBack,2022.2.5,60.375827451788275,
C,N,None,,0,27,27,27,,,,,,,,,,,,,1882,115.76375030000054,115.86382540001068,116.06404440000188,116.96409980001044,None,1,116.96409980001044,,118.46387460001279,,,,,,,,,,,,,,694541.,001,2024-05-16_14h07.05.728,nBack,2022.2.5,60.375827451788275,
V,N,None,,0,28,28,28,,,,,,,,,,,,,1955,118.46387460001279,118.56391350000922,118.76402460000827,119.66404820000753,None,1,119.66404820000753,,121.16407760001312,,,,,,,,,,,,,,694541.,001,2024-05-16_14h07.05.728,nBack,2022.2.5,60.375827451788275,
Y,N,None,,0,29,29,29,,,,,,,,,,,,,2028,121.16407760001312,121.26417280000169,121.4640902000101,122.36422990000574,None,1,122.36422990000574,,123.86422540000058,,,,,,,,,,,,,,694541.,001,2024-05-16_14h07.05.728,nBack,2022.2.5,60.375827451788275,
X,N,None,,0,30,30,30,,,,,,,,,,,,,2101,123.86422540000058,123.9642915000004,124.16466240001319,125.06427370000165,None,1,125.06427370000165,,126.56431110000995,,,,,,,,,,,,,,694541.,001,2024-05-16_14h07.05.728,nBack,2022.2.5,60.375827451788275,
B,N,None,,0,31,31,31,,,,,,,,,,,,,2174,126.56431110000995,126.66441090000444,126.86447210000188,127.76426419999916,None,1,127.76426419999916,,,,,,,,,,,,,,,,694541.,001,2024-05-16_14h07.05.728,nBack,2022.2.5,60.375827451788275,
W,N,None,,0,32,32,32,,,,,,,,,,,,,2246,129.26444040000206,129.34804040000017,129.5642441000091,130.44822230000864,None,1,130.464347000001,,,,,,,,,,,,,,,,694541.,001,2024-05-16_14h07.05.728,nBack,2022.2.5,60.375827451788275,
B,N,None,,0,33,33,33,,,,,,,,,,,,,2280,131.96441910001158,132.06449960000464,132.26445719999901,,z,0,132.5149439000088,0.4286506999924313,134.01615610001318,,,,,,,,,,,,,,694541.,001,2024-05-16_14h07.05.728,nBack,2022.2.5,60.375827451788275,
B,Y,z,,0,34,34,34,,,,,,,,,,,,,2353,134.01615610001318,134.11572850000812,134.3312098000024,135.21498780000547,None,0,135.21498780000547,,136.71588400000473,,,,,,,,,,,,,,694541.,001,2024-05-16_14h07.05.728,nBack,2022.2.5,60.375827451788275,
W,N,None,,0,35,35,35,,,,,,,,,,,,,2425,136.71588400000473,136.79799099999946,137.0161320000043,137.8978378000029,None,1,137.8978378000029,,139.39825170001131,,,,,,,,,,,,,,694541.,001,2024-05-16_14h07.05.728,nBack,2022.2.5,60.375827451788275,
W,Y,z,,0,36,36,36,,,,,,,,,,,,,2498,139.39825170001131,139.4981482000003,139.69799260000582,140.59798440001032,None,0,140.59798440001032,,142.09812450000027,,,,,,,,,,,,,,694541.,001,2024-05-16_14h07.05.728,nBack,2022.2.5,60.375827451788275,
W,Y,z,,0,37,37,37,,,,,,,,,,,,,2536,142.09812450000027,142.19862110000395,142.39854700000433,,z,1,142.71538160000637,0.49453169998014346,144.21500620000006,,,,,,,,,,,,,,694541.,001,2024-05-16_14h07.05.728,nBack,2022.2.5,60.375827451788275,
C,N,None,,0,38,38,38,,,,,,,,,,,,,2608,144.21500620000006,144.31601030001184,144.51536780000606,,None,1,145.41553589999967,,146.9152238000097,,,,,,,,,,,,,,694541.,001,2024-05-16_14h07.05.728,nBack,2022.2.5,60.375827451788275,
Y,N,None,,0,39,39,39,,,,,,,,,,,,,2681,146.9152238000097,147.01543710000988,147.21627170000284,148.11556990000827,None,1,148.11556990000827,,149.61571050000202,,,,,,,,,,,,,,694541.,001,2024-05-16_14h07.05.728,nBack,2022.2.5,60.375827451788275,
A,N,None,,0,40,40,40,,,,,,,,,,,,,2754,149.61571050000202,149.71636099999887,149.9163694000017,,None,1,150.83198280000943,,,,,,,,,,,,,,,,694541.,001,2024-05-16_14h07.05.728,nBack,2022.2.5,60.375827451788275,
A,Y,z,,0,41,41,41,,,,,,,,,,,,,2786,152.33194699999876,152.41649940000207,152.63196590000007,,z,1,152.84886900000856,0.41517489998659585,154.34879650000948,,,,,,,,,,,,,,694541.,001,2024-05-16_14h07.05.728,nBack,2022.2.5,60.375827451788275,
Y,N,None,,0,42,42,42,,,,,,,,,,,,,2859,154.34879650000948,154.44895920000272,154.6494956000097,155.5489898000087,None,1,155.5489898000087,,157.0490281000093,,,,,,,,,,,,,,694541.,001,2024-05-16_14h07.05.728,nBack,2022.2.5,60.375827451788275,
W,N,None,,0,43,43,43,,,,,,,,,,,,,2931,157.0490281000093,157.14912500001083,157.34909030000563,,None,1,158.24929450001218,,,,,,,,,,,,,,,,694541.,001,2024-05-16_14h07.05.728,nBack,2022.2.5,60.375827451788275,
B,N,None,,0,44,44,44,,,,,,,,,,,,,3003,159.74925079999957,159.8348677000031,160.04902120000042,,None,1,160.94911780000257,,162.4501842000027,,,,,,,,,,,,,,694541.,001,2024-05-16_14h07.05.728,nBack,2022.2.5,60.375827451788275,
Y,N,None,,0,45,45,45,,,,,,,,,,,,,3076,162.4501842000027,162.55037460000312,162.74947840000095,,None,1,163.66590290000022,,,,,,,,,,,,,,,,694541.,001,2024-05-16_14h07.05.728,nBack,2022.2.5,60.375827451788275,
C,N,None,,0,46,46,46,,,,,,,,,,,,,3148,165.14951139999903,165.23455230001127,165.44958710001083,,None,1,166.34964830000536,,,,,,,,,,,,,,,,694541.,001,2024-05-16_14h07.05.728,nBack,2022.2.5,60.375827451788275,
C,Y,z,,0,47,47,47,,,,,,,,,,,,,3178,167.85011560001294,167.93478590001178,168.14950260000478,,z,1,168.33478870001272,0.37036749998515006,,,,,,,,,,,,,,,694541.,001,2024-05-16_14h07.05.728,nBack,2022.2.5,60.375827451788275,
V,N,None,,0,48,48,48,,,,,,,,,,,,,3249,169.84965329999977,169.91662100001122,170.14940160000697,171.01620060000278,None,1,171.01620060000278,,172.51650140000856,,,,,,,,,,,,,,694541.,001,2024-05-16_14h07.05.728,nBack,2022.2.5,60.375827451788275,
B,N,None,,0,49,49,49,,,,,,,,,,,,,3322,172.51650140000856,172.61658770000213,172.8165413000097,173.71639120001055,None,1,173.71639120001055,,175.21631430000707,,,,,,,,,,,,,,694541.,001,2024-05-16_14h07.05.728,nBack,2022.2.5,60.375827451788275,
X,N,None,,0,50,50,50,,,,,,,,,,,,,3395,175.21631430000707,175.3163654000091,175.5163767000049,176.4162071000028,None,1,176.4162071000028,,177.91631430000416,,,,,,,,,,,,,,694541.,001,2024-05-16_14h07.05.728,nBack,2022.2.5,60.375827451788275,
X,Y,z,,0,51,51,51,,,,,,,,,,,,,3424,177.91631430000416,178.01628260000143,178.21636940000462,,z,1,178.38334759999998,0.3374617999943439,179.88314630000968,,,,,,,,,,,,,,694541.,001,2024-05-16_14h07.05.728,nBack,2022.2.5,60.375827451788275,
V,N,None,,0,52,52,52,,,,,,,,,,,,,3497,179.88314630000968,179.98306240000238,180.18319460000203,181.08308750001015,None,1,181.08308750001015,,182.58320040001126,,,,,,,,,,,,,,694541.,001,2024-05-16_14h07.05.728,nBack,2022.2.5,60.375827451788275,
Y,N,None,,0,53,53,53,,,,,,,,,,,,,3570,182.58320040001126,182.6832768000022,182.88312510000833,183.7830806000129,None,1,183.7830806000129,,185.28339770001185,,,,,,,,,,,,,,694541.,001,2024-05-16_14h07.05.728,nBack,2022.2.5,60.375827451788275,
B,N,None,,0,54,54,54,,,,,,,,,,,,,3643,185.28339770001185,185.38336620001064,185.5838950000034,186.483627300011,None,1,186.483627300011,,187.98346570000285,,,,,,,,,,,,,,694541.,001,2024-05-16_14h07.05.728,nBack,2022.2.5,60.375827451788275,
B,Y,z,,0,55,55,55,,,,,,,,,,,,,3716,187.98346570000285,188.0837281999993,188.2837326000008,189.18354620000173,None,0,189.18354620000173,,190.68378750000556,,,,,,,,,,,,,,694541.,001,2024-05-16_14h07.05.728,nBack,2022.2.5,60.375827451788275,
B,Y,z,,0,56,56,56,,,,,,,,,,,,,3745,190.68378750000556,190.7843309000018,190.9837009000039,,z,1,191.15035880000505,0.33530849998351187,192.65028300000995,,,,,,,,,,,,,,694541.,001,2024-05-16_14h07.05.728,nBack,2022.2.5,60.375827451788275,
A,N,None,,0,57,57,57,,,,,,,,,,,,,3818,192.65028300000995,192.75033480000275,192.95058309999877,193.85038180000265,None,1,193.85038180000265,,195.3509694000095,,,,,,,,,,,,,,694541.,001,2024-05-16_14h07.05.728,nBack,2022.2.5,60.375827451788275,
X,N,None,,0,58,58,58,,,,,,,,,,,,,3891,195.3509694000095,195.45050450001145,195.65152340001077,196.550865600002,None,1,196.550865600002,,198.05064240000502,,,,,,,,,,,,,,694541.,001,2024-05-16_14h07.05.728,nBack,2022.2.5,60.375827451788275,
C,N,None,,0,59,59,59,,,,,,,,,,,,,3964,198.05064240000502,198.15041720001318,198.35179760000028,199.250446200007,None,1,199.250446200007,,200.75066830001015,,,,,,,,,,,,,,694541.,001,2024-05-16_14h07.05.728,nBack,2022.2.5,60.375827451788275,
X,N,None,,0,60,60,60,,,,,,,,,,,,,4037,200.75066830001015,200.85047889999987,201.05060349999985,201.95067630000995,None,1,201.95067630000995,,203.45076240001072,,,,,,,,,,,,,,694541.,001,2024-05-16_14h07.05.728,nBack,2022.2.5,60.375827451788275,
V,N,None,,0,61,61,61,,,,,,,,,,,,,4110,203.45076240001072,203.55087730000378,203.75068050000118,204.65093490001163,None,1,204.65093490001163,,206.1509531000047,,,,,,,,,,,,,,694541.,001,2024-05-16_14h07.05.728,nBack,2022.2.5,60.375827451788275,
V,Y,z,,0,62,62,62,,,,,,,,,,,,,4183,206.1509531000047,206.2508463000122,206.45099870000558,207.35087140000542,None,0,207.35087140000542,,208.85113450000063,,,,,,,,,,,,,,694541.,001,2024-05-16_14h07.05.728,nBack,2022.2.5,60.375827451788275,
A,N,None,,0,63,63,63,,,,,,,,,,,,,4256,208.85113450000063,208.9509725000098,209.15116300000227,210.05128880000848,None,1,210.05128880000848,,211.55095950000396,,,,,,,,,,,,,,694541.,001,2024-05-16_14h07.05.728,nBack,2022.2.5,60.375827451788275,
Y,N,None,,0,64,64,64,,,,,,,,,,,,,4329,211.55095950000396,211.65128090001235,211.85118110000622,212.75156830000924,None,1,212.75156830000924,,214.25148250001075,,,,,,,,,,,,,,694541.,001,2024-05-16_14h07.05.728,nBack,2022.2.5,60.375827451788275,
Y,Y,z,,0,65,65,65,,,,,,,,,,,,,4402,214.25148250001075,214.35105740001018,214.5514647000091,215.4513147000107,None,0,215.4513147000107,,216.95124620001297,,,,,,,,,,,,,,694541.,001,2024-05-16_14h07.05.728,nBack,2022.2.5,60.375827451788275,
B,N,None,,0,66,66,66,,,,,,,,,,,,,4474,216.95124620001297,217.03494870000577,217.2513012999989,218.1357432000077,None,1,218.1357432000077,,,,,,,,,,,,,,,,694541.,001,2024-05-16_14h07.05.728,nBack,2022.2.5,60.375827451788275,
V,N,None,,0,67,67,67,,,,,,,,,,,,,4547,219.6513982000033,219.7513469000114,219.9514104000118,220.85147400001006,None,1,220.85147400001006,,222.35156310000457,,,,,,,,,,,,,,694541.,001,2024-05-16_14h07.05.728,nBack,2022.2.5,60.375827451788275,
V,Y,z,,0,68,68,68,,,,,,,,,,,,,4620,222.35156310000457,222.45156130001124,222.65230900001188,223.5518904000055,None,0,223.5518904000055,,225.05176060000667,,,,,,,,,,,,,,694541.,001,2024-05-16_14h07.05.728,nBack,2022.2.5,60.375827451788275,
A,N,None,,0,69,69,69,,,,,,,,,,,,,4692,225.05176060000667,225.1353475000069,225.35182229999918,226.23539880001044,None,1,226.23539880001044,,227.7355452000047,,,,,,,,,,,,,,694541.,001,2024-05-16_14h07.05.728,nBack,2022.2.5,60.375827451788275,
W,N,None,,0,70,70,70,,,,,,,,,,,,,4765,227.7355452000047,227.83603340000263,228.03553250001278,228.93514810000488,None,1,228.93514810000488,,230.4362884000002,,,,,,,,,,,,,,694541.,001,2024-05-16_14h07.05.728,nBack,2022.2.5,60.375827451788275,
W,Y,z,,0,71,71,71,,,,,,,,,,,,,4838,230.4362884000002,230.53547770000296,230.73638030000438,231.63540990000183,None,0,231.63540990000183,,233.13577970000915,,,,,,,,,,,,,,694541.,001,2024-05-16_14h07.05.728,nBack,2022.2.5,60.375827451788275,
Y,N,None,,0,72,72,72,,,,,,,,,,,,,4911,233.13577970000915,233.23549950000597,233.4367373000132,234.33579550001014,None,1,234.33579550001014,,235.83650699999998,,,,,,,,,,,,,,694541.,001,2024-05-16_14h07.05.728,nBack,2022.2.5,60.375827451788275,
B,N,None,,0,73,73,73,,,,,,,,,,,,,4984,235.83650699999998,235.93580640001164,236.1358263000002,237.03595030000724,None,1,237.03595030000724,,238.53617620001023,,,,,,,,,,,,,,694541.,001,2024-05-16_14h07.05.728,nBack,2022.2.5,60.375827451788275,
C,N,None,,0,74,74,74,,,,,,,,,,,,,5057,238.53617620001023,238.63618630000565,238.83634840000013,239.73593190000975,None,1,239.73593190000975,,241.2362281000096,,,,,,,,,,,,,,694541.,001,2024-05-16_14h07.05.728,nBack,2022.2.5,60.375827451788275,
C,Y,z,,0,75,75,75,,,,,,,,,,,,,5130,241.2362281000096,241.3359211000061,241.5360156000097,242.4360721000121,None,0,242.4360721000121,,243.93571130000055,,,,,,,,,,,,,,694541.,001,2024-05-16_14h07.05.728,nBack,2022.2.5,60.375827451788275,
Y,N,None,,0,76,76,76,,,,,,,,,,,,,5203,243.93571130000055,244.03630430001067,244.23600710000028,245.1365521000116,None,1,245.1365521000116,,246.6361872999987,,,,,,,,,,,,,,694541.,001,2024-05-16_14h07.05.728,nBack,2022.2.5,60.375827451788275,
X,N,None,,0,77,77,77,,,,,,,,,,,,,5276,246.6361872999987,246.73653439999907,246.9373435000016,247.8373394000082,None,1,247.8373394000082,,,,,,,,,,,,,,,,694541.,001,2024-05-16_14h07.05.728,nBack,2022.2.5,60.375827451788275,
X,Y,z,,0,78,78,78,,,,,,,,,,,,,5308,249.35264040000038,249.43686020000314,249.65278390000458,,z,1,249.86975170001097,0.4022864999860758,251.3698424000031,,,,,,,,,,,,,,694541.,001,2024-05-16_14h07.05.728,nBack,2022.2.5,60.375827451788275,
C,N,None,,0,79,79,79,,,,,,,,,,,,,5381,251.3698424000031,251.46963810001034,251.6698408000084,252.56963110000652,None,1,252.56963110000652,,254.0702988000121,,,,,,,,,,,,,,694541.,001,2024-05-16_14h07.05.728,nBack,2022.2.5,60.375827451788275,
W,N,None,,0,80,80,80,,,,,,,,,,,,,5454,254.0702988000121,254.16970460000448,254.3705411000119,255.2697659000114,None,1,255.2697659000114,,256.76978710001276,,,,,,,,,,,,,,694541.,001,2024-05-16_14h07.05.728,nBack,2022.2.5,60.375827451788275,
W,Y,z,,0,81,81,81,,,,,,,,,,,,,5527,256.76978710001276,256.87016030000814,257.0698294000031,257.96983700001147,None,0,257.96983700001147,,259.4703574000014,,,,,,,,,,,,,,694541.,001,2024-05-16_14h07.05.728,nBack,2022.2.5,60.375827451788275,
W,Y,z,,0,82,82,82,,,,,,,,,,,,,5561,259.4703574000014,259.57014350000827,259.77012560000003,,z,1,260.01973949999956,0.42901159999019,261.5218004000053,,,,,,,,,,,,,,694541.,001,2024-05-16_14h07.05.728,nBack,2022.2.5,60.375827451788275,
C,N,None,,0,83,83,83,,,,,,,,,,,,,5633,261.5218004000053,261.6033946000098,261.8367167000106,262.7034691000008,None,1,262.7034691000008,,264.20339150000655,,,,,,,,,,,,,,694541.,001,2024-05-16_14h07.05.728,nBack,2022.2.5,60.375827451788275,
Y,N,None,,0,84,84,84,,,,,,,,,,,,,5706,264.20339150000655,264.3036761000112,264.5040239000082,265.40475680000964,None,1,265.40475680000964,,266.9042361000029,,,,,,,,,,,,,,694541.,001,2024-05-16_14h07.05.728,nBack,2022.2.5,60.375827451788275,
C,N,None,,0,85,85,85,,,,,,,,,,,,,5779,266.9042361000029,267.0036279000051,267.2036155000096,268.1040519000089,None,1,268.1040519000089,,269.6036017000006,,,,,,,,,,,,,,694541.,001,2024-05-16_14h07.05.728,nBack,2022.2.5,60.375827451788275,
X,N,None,,0,86,86,86,,,,,,,,,,,,,5852,269.6036017000006,269.7043152000115,269.90383010001096,270.8046170000016,None,1,270.8046170000016,,272.30428960001154,,,,,,,,,,,,,,694541.,001,2024-05-16_14h07.05.728,nBack,2022.2.5,60.375827451788275,
B,N,None,,0,87,87,87,,,,,,,,,,,,,5925,272.30428960001154,272.40392460000294,272.60363140000845,273.50398430001223,None,1,273.50398430001223,,275.00420250000025,,,,,,,,,,,,,,694541.,001,2024-05-16_14h07.05.728,nBack,2022.2.5,60.375827451788275,
B,Y,z,,0,88,88,88,,,,,,,,,,,,,5998,275.00420250000025,275.1041813000047,275.30370140000014,276.20404120000603,None,0,276.20404120000603,,277.704413200001,,,,,,,,,,,,,,694541.,001,2024-05-16_14h07.05.728,nBack,2022.2.5,60.375827451788275,
A,N,None,,0,89,89,89,,,,,,,,,,,,,6071,277.704413200001,277.80396610000753,278.0037669000012,278.9038176000031,None,1,278.9038176000031,,280.40407100001175,,,,,,,,,,,,,,694541.,001,2024-05-16_14h07.05.728,nBack,2022.2.5,60.375827451788275,
B,N,None,,0,90,90,90,,,,,,,,,,,,,6144,280.40407100001175,280.50390660000267,280.7037885000027,281.6040487999999,None,1,281.6040487999999,,283.10414870000386,,,,,,,,,,,,,,694541.,001,2024-05-16_14h07.05.728,nBack,2022.2.5,60.375827451788275,
V,N,None,,0,91,91,91,,,,,,,,,,,,,6217,283.10414870000386,283.20406640000874,283.404285800003,284.30418390000705,None,1,284.30418390000705,,285.8045715000044,,,,,,,,,,,,,,694541.,001,2024-05-16_14h07.05.728,nBack,2022.2.5,60.375827451788275,
V,Y,z,,0,92,92,92,,,,,,,,,,,,,6290,285.8045715000044,285.90434330000426,286.1043493000034,287.0046505000064,None,0,287.0046505000064,,288.5048889000027,,,,,,,,,,,,,,694541.,001,2024-05-16_14h07.05.728,nBack,2022.2.5,60.375827451788275,
B,N,None,,0,93,93,93,,,,,,,,,,,,,6363,288.5048889000027,288.60426120000193,288.80442010000115,289.70459200000914,None,1,289.70459200000914,,291.20434229999955,,,,,,,,,,,,,,694541.,001,2024-05-16_14h07.05.728,nBack,2022.2.5,60.375827451788275,
W,N,None,,0,94,94,94,,,,,,,,,,,,,6436,291.20434229999955,291.3045715000044,291.5042526000034,292.4044011000078,None,1,292.4044011000078,,293.9044212000008,,,,,,,,,,,,,,694541.,001,2024-05-16_14h07.05.728,nBack,2022.2.5,60.375827451788275,
B,N,None,,0,95,95,95,,,,,,,,,,,,,6509,293.9044212000008,294.00445860000036,294.2046752000024,295.1044083000015,None,1,295.1044083000015,,296.6045562000072,,,,,,,,,,,,,,694541.,001,2024-05-16_14h07.05.728,nBack,2022.2.5,60.375827451788275,
B,Y,z,,0,96,96,96,,,,,,,,,,,,,6582,296.6045562000072,296.7046760000085,296.90491300000576,297.8046893999999,None,0,297.8046893999999,,299.3046938000043,,,,,,,,,,,,,,694541.,001,2024-05-16_14h07.05.728,nBack,2022.2.5,60.375827451788275,
Y,N,None,,0,97,97,97,,,,,,,,,,,,,6655,299.3046938000043,299.40482590001193,299.60492380001233,300.50497580000956,None,1,300.50497580000956,,302.1100162000075,,,,,,,,,,,,,,694541.,001,2024-05-16_14h07.05.728,nBack,2022.2.5,60.375827451788275,
B,N,None,,0,98,98,98,,,,,,,,,,,,,6723,302.1100162000075,302.1100162000075,302.42194610000297,303.222419800004,None,1,303.222419800004,,,,,,,,,,,,,,,,694541.,001,2024-05-16_14h07.05.728,nBack,2022.2.5,60.375827451788275,
B,Y,z,,0,99,99,99,,,,,,,,,,,,,6771,304.738526000001,304.80480060000264,305.0382316000032,,z,1,305.5219852000009,0.6883299999899464,307.02218440000433,,,,,,,,,,,,,,694541.,001,2024-05-16_14h07.05.728,nBack,2022.2.5,60.375827451788275,
W,N,None,,0,100,100,100,,,,,,,,,,,,,6844,307.02218440000433,307.12218610000855,307.3219315000024,308.22386220000044,None,1,308.22386220000044,,,,,,,,,,,,,,,,694541.,001,2024-05-16_14h07.05.728,nBack,2022.2.5,60.375827451788275,
V,N,None,,0,101,101,101,,,,,,,,,,,,,6915,309.73850000000675,309.8049803000031,310.0385275000008,310.90503430001263,None,1,310.90503430001263,,312.4055417000054,,,,,,,,,,,,,,694541.,001,2024-05-16_14h07.05.728,nBack,2022.2.5,60.375827451788275,
A,N,None,,0,102,102,102,,,,,,,,,,,,,6988,312.4055417000054,312.50535520000267,312.7051735000132,313.6055583999987,None,1,313.6055583999987,,315.1055220999988,,,,,,,,,,,,,,694541.,001,2024-05-16_14h07.05.728,nBack,2022.2.5,60.375827451788275,
A,Y,z,,0,103,103,103,,,,,,,,,,,,,7061,315.12213670001074,315.2054222000006,315.4224321000074,316.30564390000654,None,0,316.30564390000654,,317.80627830000594,,,,,,,,,,,,,,694541.,001,2024-05-16_14h07.05.728,nBack,2022.2.5,60.375827451788275,
X,N,None,,0,104,104,104,,,,,,,,,,,,,7135,317.80627830000594,317.92232470000454,318.1060673000029,319.0225940000091,None,1,319.0225940000091,,320.5232823000115,,,,,,,,,,,,,,694541.,001,2024-05-16_14h07.05.728,nBack,2022.2.5,60.375827451788275,
V,N,None,,0,105,105,105,,,,,,,,,,,,,7207,320.5232823000115,320.60544470000605,320.838997400002,321.7060863000079,None,1,321.7060863000079,,323.2062105000077,,,,,,,,,,,,,,694541.,001,2024-05-16_14h07.05.728,nBack,2022.2.5,60.375827451788275,
Y,N,None,,0,106,106,106,,,,,,,,,,,,,7280,323.2062105000077,323.3055250000034,323.5061432000075,324.40591530001257,None,1,324.40591530001257,,325.90579560000333,,,,,,,,,,,,,,694541.,001,2024-05-16_14h07.05.728,nBack,2022.2.5,60.375827451788275,
Y,Y,z,,0,107,107,107,,,,,,,,,,,,,7353,325.90579560000333,326.0056872000132,326.20568260000437,327.10597170000256,None,0,327.10597170000256,,328.6058122000104,,,,,,,,,,,,,,694541.,001,2024-05-16_14h07.05.728,nBack,2022.2.5,60.375827451788275,
V,N,None,,0,108,108,108,,,,,,,,,,,,,7426,328.6058122000104,328.70583030000853,328.90611210001225,329.80610820000584,None,1,329.80610820000584,,331.3064177000051,,,,,,,,,,,,,,694541.,001,2024-05-16_14h07.05.728,nBack,2022.2.5,60.375827451788275,
C,N,None,,0,109,109,109,,,,,,,,,,,,,7499,331.3064177000051,331.40606259999913,331.6060414000094,332.50615690000996,None,1,332.50615690000996,,334.0061148000095,,,,,,,,,,,,,,694541.,001,2024-05-16_14h07.05.728,nBack,2022.2.5,60.375827451788275,
W,N,None,,0,110,110,110,,,,,,,,,,,,,7572,334.0061148000095,334.10645289999957,334.30622840000433,335.2062985000084,None,1,335.2062985000084,,336.70603980000305,,,,,,,,,,,,,,694541.,001,2024-05-16_14h07.05.728,nBack,2022.2.5,60.375827451788275,
X,N,None,,0,111,111,111,,,,,,,,,,,,,7645,336.70603980000305,336.8062154000072,337.0064025000029,337.90615830000024,None,1,337.90615830000024,,339.40655820000393,,,,,,,,,,,,,,694541.,001,2024-05-16_14h07.05.728,nBack,2022.2.5,60.375827451788275,
X,Y,z,,0,112,112,112,,,,,,,,,,,,,7718,339.40655820000393,339.5065602000104,339.707181100006,340.60639650000667,None,0,340.60639650000667,,342.10627509999904,,,,,,,,,,,,,,694541.,001,2024-05-16_14h07.05.728,nBack,2022.2.5,60.375827451788275,
Y,N,None,,0,113,113,113,,,,,,,,,,,,,7791,342.10627509999904,342.2066313000105,342.40708280001127,343.3064999000053,None,1,343.3064999000053,,344.80667570000514,,,,,,,,,,,,,,694541.,001,2024-05-16_14h07.05.728,nBack,2022.2.5,60.375827451788275,
X,N,None,,0,114,114,114,,,,,,,,,,,,,7864,344.80667570000514,344.9067221000005,345.10656890000973,346.0066668000072,None,1,346.0066668000072,,347.50664930000494,,,,,,,,,,,,,,694541.,001,2024-05-16_14h07.05.728,nBack,2022.2.5,60.375827451788275,
W,N,None,,0,115,115,115,,,,,,,,,,,,,7937,347.50664930000494,347.60677980000037,347.8073463000037,348.70685090000916,None,1,348.70685090000916,,350.20751120000205,,,,,,,,,,,,,,694541.,001,2024-05-16_14h07.05.728,nBack,2022.2.5,60.375827451788275,
X,N,None,,0,116,116,116,,,,,,,,,,,,,8010,350.20751120000205,350.30726159999904,350.5066552000062,351.4073467999988,None,1,351.4073467999988,,352.9071388000011,,,,,,,,,,,,,,694541.,001,2024-05-16_14h07.05.728,nBack,2022.2.5,60.375827451788275,
A,N,None,,0,117,117,117,,,,,,,,,,,,,8083,352.9071388000011,353.00714270000753,353.20675850000407,354.1071871000022,None,1,354.1071871000022,,355.60710310000286,,,,,,,,,,,,,,694541.,001,2024-05-16_14h07.05.728,nBack,2022.2.5,60.375827451788275,
B,N,None,,0,118,118,118,,,,,,,,,,,,,8156,355.60710310000286,355.71001180000894,355.9069274000067,,None,1,356.82645480000065,,,,,,,,,,,,,,,,694541.,001,2024-05-16_14h07.05.728,nBack,2022.2.5,60.375827451788275,
B,Y,z,,0,119,119,119,,,,,,,,,,,,,8193,358.32451890000084,358.407168500009,358.62388700000884,,z,1,358.9246763000119,0.49396309998701327,,,,,,,,,,,,,,,694541.,001,2024-05-16_14h07.05.728,nBack,2022.2.5,60.375827451788275,
W,N,None,,0,120,120,120,,,,,,,,,,,,,8265,360.4243284000113,360.5240455000021,360.72428460000083,,None,1,361.62420340000244,,,,,,,,,,,,,,,,694541.,001,2024-05-16_14h07.05.728,nBack,2022.2.5,60.375827451788275,
X,N,None,,0,121,121,121,,,,,,,,,,,,,8337,363.12399040001037,363.2253611000051,363.42466960000456,,None,1,364.324901400003,,,,,,,,,,,,,,,,694541.,001,2024-05-16_14h07.05.728,nBack,2022.2.5,60.375827451788275,
Y,N,None,,0,122,122,122,,,,,,,,,,,,,8409,365.8246766000084,365.9251390999998,366.1243489000044,,None,1,367.0244082999998,,,,,,,,,,,,,,,,694541.,001,2024-05-16_14h07.05.728,nBack,2022.2.5,60.375827451788275,
B,N,None,,0,123,123,123,,,,,,,,,,,,,8481,368.5245484000043,368.610018700012,368.824328600007,,None,1,369.72423450001224,,,,,,,,,,,,,,,,694541.,001,2024-05-16_14h07.05.728,nBack,2022.2.5,60.375827451788275,
A,N,None,,0,124,124,124,,,,,,,,,,,,,8553,371.22481510000944,371.3093762000062,371.5243310000078,,None,1,372.42451480000454,,,,,,,,,,,,,,,,694541.,001,2024-05-16_14h07.05.728,nBack,2022.2.5,60.375827451788275,
X,N,None,,0,125,125,125,,,,,,,,,,,,,8625,373.9246598000027,374.0098292000039,374.2242971000087,,None,1,375.125039800012,,,,,,,,,,,,,,,,694541.,001,2024-05-16_14h07.05.728,nBack,2022.2.5,60.375827451788275,
V,N,None,,0,126,126,126,,,,,,,,,,,,,8697,376.6244813000085,376.7095010000048,376.92472710000584,,None,1,377.82471080000687,,,,,,,,,,,,,,,,694541.,001,2024-05-16_14h07.05.728,nBack,2022.2.5,60.375827451788275,
V,Y,z,,0,127,127,127,,,,,,,,,,,,,8769,379.3249630000064,379.4101747000095,379.6255588000058,,None,0,380.5248033000098,,,,,,,,,,,,,,,,694541.,001,2024-05-16_14h07.05.728,nBack,2022.2.5,60.375827451788275,
X,N,None,,0,128,128,128,,,,,,,,,,,,,8841,382.02501570001186,382.1091892000113,382.32476750000205,,None,1,383.22514770001,,,,,,,,,,,,,,,,694541.,001,2024-05-16_14h07.05.728,nBack,2022.2.5,60.375827451788275,
V,N,None,,0,129,129,129,,,,,,,,,,,,,8913,384.7248249000113,384.81001320001087,385.0249051999999,,None,1,385.9251865000115,,,,,,,,,,,,,,,,694541.,001,2024-05-16_14h07.05.728,nBack,2022.2.5,60.375827451788275,
V,Y,z,,0,130,130,130,,,,,,,,,,,,,8941,387.42490779999935,387.509146299999,387.72518610001134,,z,1,387.87579770000593,0.3387711999966996,389.37527460001,,,,,,,,,,,,,,694541.,001,2024-05-16_14h07.05.728,nBack,2022.2.5,60.375827451788275,
W,N,None,,0,131,131,131,,,,,,,,,,,,,9013,389.37527460001,389.4585877000063,389.67648850000114,390.5583912000002,None,1,390.5583912000002,,392.0585352000053,,,,,,,,,,,,,,694541.,001,2024-05-16_14h07.05.728,nBack,2022.2.5,60.375827451788275,
C,N,None,,0,132,132,132,,,,,,,,,,,,,9086,392.0585352000053,392.15876430000935,392.35854090000794,393.25863460000255,None,1,393.25863460000255,,394.7586442000029,,,,,,,,,,,,,,694541.,001,2024-05-16_14h07.05.728,nBack,2022.2.5,60.375827451788275,
A,N,None,,0,133,133,133,,,,,,,,,,,,,9159,394.7586442000029,394.85878680000314,395.05878510000184,395.9593855999992,None,1,395.9593855999992,,397.4593276000087,,,,,,,,,,,,,,694541.,001,2024-05-16_14h07.05.728,nBack,2022.2.5,60.375827451788275,
V,N,None,,0,134,134,134,,,,,,,,,,,,,9232,397.4593276000087,397.55924159999995,397.7591233999992,398.65890670000226,None,1,398.65890670000226,,400.1589270000113,,,,,,,,,,,,,,694541.,001,2024-05-16_14h07.05.728,nBack,2022.2.5,60.375827451788275,
A,N,None,,0,135,135,135,,,,,,,,,,,,,9305,400.1589270000113,400.2592394000094,400.45924000001105,401.3591398999997,None,1,401.3591398999997,,402.859119700006,,,,,,,,,,,,,,694541.,001,2024-05-16_14h07.05.728,nBack,2022.2.5,60.375827451788275,
A,Y,z,,0,136,136,136,,,,,,,,,,,,,9348,402.859119700006,402.95896780000476,403.1589559999993,,z,1,403.559159299999,0.5808015999937197,405.059138800003,,,,,,,,,,,,,,694541.,001,2024-05-16_14h07.05.728,nBack,2022.2.5,60.375827451788275,
A,Y,z,,0,137,137,137,,,,,,,,,,,,,9421,405.059138800003,405.1592062000127,405.3590661000053,406.25913360000413,None,0,406.25913360000413,,407.75924360001227,,,,,,,,,,,,,,694541.,001,2024-05-16_14h07.05.728,nBack,2022.2.5,60.375827451788275,
C,N,None,,0,138,138,138,,,,,,,,,,,,,9494,407.75924360001227,407.859492100004,408.05937420000555,408.95954890000576,None,1,408.95954890000576,,410.4591284000053,,,,,,,,,,,,,,694541.,001,2024-05-16_14h07.05.728,nBack,2022.2.5,60.375827451788275,
W,N,None,,0,139,139,139,,,,,,,,,,,,,9567,410.4591284000053,410.5594237000041,410.7604424000019,411.6593683000101,None,1,411.6593683000101,,413.15941030000977,,,,,,,,,,,,,,694541.,001,2024-05-16_14h07.05.728,nBack,2022.2.5,60.375827451788275,
W,Y,z,,0,140,140,140,,,,,,,,,,,,,9640,413.15941030000977,413.2593920000072,413.4599509000109,414.35952660000476,None,0,414.35952660000476,,415.85935510000854,,,,,,,,,,,,,,694541.,001,2024-05-16_14h07.05.728,nBack,2022.2.5,60.375827451788275,
B,N,None,,0,141,141,141,,,,,,,,,,,,,9713,415.85935510000854,415.9596154000028,416.15949679999903,417.05947070001275,None,1,417.05947070001275,,418.5595682999992,,,,,,,,,,,,,,694541.,001,2024-05-16_14h07.05.728,nBack,2022.2.5,60.375827451788275,
C,N,None,,0,142,142,142,,,,,,,,,,,,,9786,418.5595682999992,418.65947670000605,418.8596588000073,419.759701700008,None,1,419.759701700008,,421.2606366000109,,,,,,,,,,,,,,694541.,001,2024-05-16_14h07.05.728,nBack,2022.2.5,60.375827451788275,
X,N,None,,0,143,143,143,,,,,,,,,,,,,9859,421.2606366000109,421.3598963000113,421.5597075000114,422.4597450000001,None,1,422.4597450000001,,423.9603114000056,,,,,,,,,,,,,,694541.,001,2024-05-16_14h07.05.728,nBack,2022.2.5,60.375827451788275,
Y,N,None,,0,144,144,144,,,,,,,,,,,,,9932,423.9603114000056,424.0603162000043,424.2606591000076,425.16042860000744,None,1,425.16042860000744,,426.66021680000995,,,,,,,,,,,,,,694541.,001,2024-05-16_14h07.05.728,nBack,2022.2.5,60.375827451788275,
Y,Y,z,,0,145,145,145,,,,,,,,,,,,,10005,426.66021680000995,426.76012280001305,426.9601459000114,427.86015520000365,None,0,427.86015520000365,,429.35994629999914,,,,,,,,,,,,,,694541.,001,2024-05-16_14h07.05.728,nBack,2022.2.5,60.375827451788275,
C,N,None,,0,146,146,146,,,,,,,,,,,,,10078,429.35994629999914,429.4600024000101,429.6601456000062,430.56003750000673,None,1,430.56003750000673,,432.0600279000064,,,,,,,,,,,,,,694541.,001,2024-05-16_14h07.05.728,nBack,2022.2.5,60.375827451788275,
,,,,,,,,,,,,,,,,,,,,,,,,,,,,,,432.0600279000064,434.0601508000109,z,4.643565799982753,,,,,,,,,,694541.,001,2024-05-16_14h07.05.728,nBack,2022.2.5,60.375827451788275,
,None,None,V,,,,,0,0,0,0,,,,,,,,,10150,,,,,,,439.92716850001307,,441.4273191000102,,,,,438.7475126000063,438.82712130001164,439.060702200004,439.92716850001307,None,1,,,,694541.,001,2024-05-16_14h07.05.728,nBack,2022.2.5,60.375827451788275,
,None,None,W,,,,,0,1,1,1,,,,,,,,,10223,,,,,,,442.62734560000536,,444.12744690000545,,,,,441.4273191000102,441.5275534000102,441.72721000001184,442.62734560000536,None,1,,,,694541.,001,2024-05-16_14h07.05.728,nBack,2022.2.5,60.375827451788275,
,N,None,X,,,,,0,2,2,2,,,,,,,,,10296,,,,,,,445.3276926000108,,446.83082300001115,,,,,444.12744690000545,444.2274834000127,444.4276746000105,445.3276926000108,None,1,,,,694541.,001,2024-05-16_14h07.05.728,nBack,2022.2.5,60.375827451788275,
,Y,z,W,,,,,0,3,3,3,,,,,,,,,10350,,,,,,,447.7110531000071,,,,,,,446.83082300001115,446.92738390000886,447.14453630000935,,z,1,0.7533037999819499,,,694541.,001,2024-05-16_14h07.05.728,nBack,2022.2.5,60.375827451788275,
,N,None,V,,,,,0,4,4,4,,,,,,,,,10423,,,,,,,450.427528500004,,,,,,,449.211753399999,449.31224959999963,449.51124320000235,,None,1,,,,694541.,001,2024-05-16_14h07.05.728,nBack,2022.2.5,60.375827451788275,
,N,None,Y,,,,,0,5,5,5,,,,,,,,,10494,,,,,,,453.1113142000104,,454.6116900000052,,,,,451.9279135000106,451.9946973000042,452.2282733000029,453.0947540000052,None,1,,,,694541.,001,2024-05-16_14h07.05.728,nBack,2022.2.5,60.375827451788275,
,N,None,C,,,,,0,6,6,6,,,,,,,,,10567,,,,,,,455.8121691000124,,457.31149380000716,,,,,454.6116900000052,454.7112124000123,454.9123038000107,455.8121691000124,None,1,,,,694541.,001,2024-05-16_14h07.05.728,nBack,2022.2.5,60.375827451788275,
,Y,z,Y,,,,,0,7,7,7,,,,,,,,,10640,,,,,,,458.5125351000024,,,,,,,457.31149380000716,457.41190690000076,457.6120873000036,458.5125351000024,None,0,,,,694541.,001,2024-05-16_14h07.05.728,nBack,2022.2.5,60.375827451788275,
,Y,z,C,,,,,0,8,8,8,,,,,,,,,10712,,,,,,,461.211549700005,,462.71165029999975,,,,,460.0302942000126,460.1119239000109,460.344740200002,461.211549700005,None,0,,,,694541.,001,2024-05-16_14h07.05.728,nBack,2022.2.5,60.375827451788275,
,N,None,B ,,,,,0,9,9,9,,,,,,,,,10784,,,,,,,463.91172370000277,,,,,,,462.71165029999975,462.81178610000643,463.01163410001027,,None,1,,,,694541.,001,2024-05-16_14h07.05.728,nBack,2022.2.5,60.375827451788275,
,N,None,Y,,,,,0,10,10,10,,,,,,,,,10856,,,,,,,466.6117751999991,,,,,,,465.4120278000046,465.5117889000103,465.71196549999877,,None,1,,,,694541.,001,2024-05-16_14h07.05.728,nBack,2022.2.5,60.375827451788275,
,N,None,B,,,,,0,11,11,11,,,,,,,,,10928,,,,,,,469.3118367999996,,,,,,,468.1119158000074,468.1970199000061,468.411740800002,,None,1,,,,694541.,001,2024-05-16_14h07.05.728,nBack,2022.2.5,60.375827451788275,
,Y,z,Y,,,,,0,12,12,12,,,,,,,,,11000,,,,,,,472.0125349000009,,,,,,,470.8123980000091,470.91237679999904,471.11234630001127,,None,0,,,,694541.,001,2024-05-16_14h07.05.728,nBack,2022.2.5,60.375827451788275,
,N,None,C,,,,,0,13,13,13,,,,,,,,,11072,,,,,,,474.712053700001,,,,,,,473.51235630000883,473.5977994000132,473.8119876000128,,None,1,,,,694541.,001,2024-05-16_14h07.05.728,nBack,2022.2.5,60.375827451788275,
,N,None,W,,,,,0,14,14,14,,,,,,,,,11144,,,,,,,477.41231990000233,,,,,,,476.2121388000087,476.29678380000405,476.51195550001285,,None,1,,,,694541.,001,2024-05-16_14h07.05.728,nBack,2022.2.5,60.375827451788275,
,N,None,A,,,,,0,15,15,15,,,,,,,,,11216,,,,,,,480.11215410000295,,,,,,,478.9125039000064,478.99696440000844,479.21223910000117,,None,1,,,,694541.,001,2024-05-16_14h07.05.728,nBack,2022.2.5,60.375827451788275,
,Y,z,W,,,,,0,16,16,16,,,,,,,,,11265,,,,,,,482.41217960001086,,483.91237530000217,,,,,481.61217450001277,481.6969181000022,481.9127152000001,,z,1,0.6959479999932228,,,694541.,001,2024-05-16_14h07.05.728,nBack,2022.2.5,60.375827451788275,
,N,None,B,,,,,0,17,17,17,,,,,,,,,11338,,,,,,,485.11239410001144,,486.6125170000014,,,,,483.91237530000217,484.0130216000107,484.2127032999997,485.11239410001144,None,1,,,,694541.,001,2024-05-16_14h07.05.728,nBack,2022.2.5,60.375827451788275,
,Y,z,W,,,,,0,18,18,18,,,,,,,,,11411,,,,,,,487.81268410000484,,489.3125923000043,,,,,486.6125170000014,486.71244000000297,486.91238310000335,487.81268410000484,None,0,,,,694541.,001,2024-05-16_14h07.05.728,nBack,2022.2.5,60.375827451788275,
,N,None,V,,,,,0,19,19,19,,,,,,,,,11484,,,,,,,490.51266849999956,,492.0125510000071,,,,,489.3125923000043,489.41255900000397,489.6124385000003,490.51266849999956,None,1,,,,694541.,001,2024-05-16_14h07.05.728,nBack,2022.2.5,60.375827451788275,
,Y,z,W,,,,,0,20,20,20,,,,,,,,,11508,,,,,,,492.3965278000105,,493.8969930000021,,,,,492.0125510000071,492.11265640000056,492.31315720001294,,z,1,0.26200999999127816,,,694541.,001,2024-05-16_14h07.05.728,nBack,2022.2.5,60.375827451788275,
,N,None,X,,,,,0,21,21,21,,,,,,,,,11581,,,,,,,495.09652600000845,,496.59751680000045,,,,,493.8969930000021,493.99656480000704,494.21270830000867,495.09652600000845,None,1,,,,694541.,001,2024-05-16_14h07.05.728,nBack,2022.2.5,60.375827451788275,
,Y,z,W,,,,,0,22,22,22,,,,,,,,,11654,,,,,,,497.8129645000008,,,,,,,496.59751680000045,496.69775530000334,496.9128225000022,,None,0,,,,694541.,001,2024-05-16_14h07.05.728,nBack,2022.2.5,60.375827451788275,
,N,None,A,,,,,0,23,23,23,,,,,,,,,11725,,,,,,,500.47959990000527,,501.979720000003,,,,,499.3130680000031,499.3795631000103,499.6131621000095,500.47959990000527,None,1,,,,694541.,001,2024-05-16_14h07.05.728,nBack,2022.2.5,60.375827451788275,
,N,None,X,,,,,0,24,24,24,,,,,,,,,11798,,,,,,,503.1797007000132,,504.6799529000127,,,,,501.979720000003,502.0795924000122,502.2803802999988,503.1797007000132,None,1,,,,694541.,001,2024-05-16_14h07.05.728,nBack,2022.2.5,60.375827451788275,
,N,None,V,,,,,0,25,25,25,,,,,,,,,11872,,,,,,,505.89670070000284,,507.397446700008,,,,,504.6970450000081,504.7967711000092,504.9969035000104,505.89670070000284,None,1,,,,694541.,001,2024-05-16_14h07.05.728,nBack,2022.2.5,60.375827451788275,
,N,None,W,,,,,0,26,26,26,,,,,,,,,11944,,,,,,,508.59721900000295,,510.0971518000006,,,,,507.397446700008,507.4799911000009,507.69801700000244,508.580609200013,None,1,,,,694541.,001,2024-05-16_14h07.05.728,nBack,2022.2.5,60.375827451788275,
,N,None,A,,,,,0,27,27,27,,,,,,,,,12016,,,,,,,511.2799880000093,,512.7801407000079,,,,,510.0971518000006,510.18041540001286,510.3983200000075,511.2799880000093,None,1,,,,694541.,001,2024-05-16_14h07.05.728,nBack,2022.2.5,60.375827451788275,
,N,None,X,,,,,0,28,28,28,,,,,,,,,12089,,,,,,,513.9807372000068,,515.4808669000049,,,,,512.7801407000079,512.8802205000102,513.0802804000123,513.9807372000068,None,1,,,,694541.,001,2024-05-16_14h07.05.728,nBack,2022.2.5,60.375827451788275,
,N,None,V,,,,,0,29,29,29,,,,,,,,,12162,,,,,,,516.6803241000016,,,,,,,515.4808669000049,515.5808704000083,515.7804048000107,516.6803241000016,None,1,,,,694541.,001,2024-05-16_14h07.05.728,nBack,2022.2.5,60.375827451788275,
,Y,z,X,,,,,0,30,30,30,,,,,,,,,12215,,,,,,,519.41606280001,,,,,,,518.2067680000036,518.4237196000031,518.5219017000054,,None,0,,,,694541.,001,2024-05-16_14h07.05.728,nBack,2022.2.5,60.375827451788275,
,N,None,A,,,,,0,31,31,31,,,,,,,,,12271,,,,,,,522.0978662000125,,523.5977013000083,,,,,521.0710277000035,521.0814096000104,521.4160236000025,,None,1,,,,694541.,001,2024-05-16_14h07.05.728,nBack,2022.2.5,60.375827451788275,
,N,None,V,,,,,0,32,32,32,,,,,,,,,12307,,,,,,,524.180543200011,,525.6807112000097,,,,,523.5977013000083,523.6805179000075,523.8990166000003,,z,0,0.47512939998705406,,,694541.,001,2024-05-16_14h07.05.728,nBack,2022.2.5,60.375827451788275,
,Y,z,A,,,,,0,33,33,33,,,,,,,,,12380,,,,,,,526.8808116,,528.3811130000104,,,,,525.6807112000097,525.7810196000064,525.9807716000068,526.8808116,None,0,,,,694541.,001,2024-05-16_14h07.05.728,nBack,2022.2.5,60.375827451788275,
,N,None,C,,,,,0,34,34,34,,,,,,,,,12453,,,,,,,529.5807133000053,,531.0809783000004,,,,,528.3811130000104,528.4809804000106,528.681195600002,529.5807133000053,None,1,,,,694541.,001,2024-05-16_14h07.05.728,nBack,2022.2.5,60.375827451788275,
,N,None,X,,,,,0,35,35,35,,,,,,,,,12526,,,,,,,532.2809726000123,,533.7809425000014,,,,,531.0809783000004,531.1808152000012,531.3809528999991,532.2809726000123,None,1,,,,694541.,001,2024-05-16_14h07.05.728,nBack,2022.2.5,60.375827451788275,
,N,None,A,,,,,0,36,36,36,,,,,,,,,12599,,,,,,,534.9811192000052,,536.4813411000068,,,,,533.7809425000014,533.8812133000029,534.0818266999995,534.9811192000052,None,1,,,,694541.,001,2024-05-16_14h07.05.728,nBack,2022.2.5,60.375827451788275,
,N,None,B,,,,,0,37,37,37,,,,,,,,,12672,,,,,,,537.6813010000042,,539.1813585000054,,,,,536.4813411000068,536.582172200011,536.7812851000053,537.6813010000042,None,1,,,,694541.,001,2024-05-16_14h07.05.728,nBack,2022.2.5,60.375827451788275,
,Y,z,A,,,,,0,38,38,38,,,,,,,,,12745,,,,,,,540.3813235000125,,541.881269400008,,,,,539.1813585000054,539.2813307000033,539.4814827000082,540.3813235000125,None,0,,,,694541.,001,2024-05-16_14h07.05.728,nBack,2022.2.5,60.375827451788275,
,Y,z,B,,,,,0,39,39,39,,,,,,,,,12818,,,,,,,543.0814951000066,,544.5820375000039,,,,,541.881269400008,541.9813527000078,542.1813938000123,543.0814951000066,None,0,,,,694541.,001,2024-05-16_14h07.05.728,nBack,2022.2.5,60.375827451788275,
,N,None,C,,,,,0,40,40,40,,,,,,,,,12891,,,,,,,545.7814528000017,,547.281584700002,,,,,544.5820375000039,544.681439500011,544.8815205999999,545.7814528000017,None,1,,,,694541.,001,2024-05-16_14h07.05.728,nBack,2022.2.5,60.375827451788275,
,Y,z,B,,,,,0,41,41,41,,,,,,,,,12963,,,,,,,548.4816659000062,,549.9818739000038,,,,,547.281584700002,547.3818676000083,547.5817362000089,,None,0,,,,694541.,001,2024-05-16_14h07.05.728,nBack,2022.2.5,60.375827451788275,
,N,None,A,,,,,0,42,42,42,,,,,,,,,13036,,,,,,,551.181905800011,,,,,,,549.9818739000038,550.0816911000002,550.2820407000108,551.181905800011,None,1,,,,694541.,001,2024-05-16_14h07.05.728,nBack,2022.2.5,60.375827451788275,
,N,None,W,,,,,0,43,43,43,,,,,,,,,13109,,,,,,,553.8847336000035,,,,,,,552.6851887000084,552.7822692000045,552.9996377000061,553.8847336000035,None,1,,,,694541.,001,2024-05-16_14h07.05.728,nBack,2022.2.5,60.375827451788275,
,N,None,B ,,,,,0,44,44,44,,,,,,,,,13180,,,,,,,556.5655587000074,,558.0656455999997,,,,,555.3995385000017,555.4654946000082,555.6993168000045,556.5655587000074,None,1,,,,694541.,001,2024-05-16_14h07.05.728,nBack,2022.2.5,60.375827451788275,
,Y,z,W,,,,,0,45,45,45,,,,,,,,,13209,,,,,,,558.5328985000087,,560.0324580000015,,,,,558.0656455999997,558.1665691000089,558.3661608000111,,z,1,0.3370610999845667,,,694541.,001,2024-05-16_14h07.05.728,nBack,2022.2.5,60.375827451788275,
,Y,z,B ,,,,,0,46,46,46,,,,,,,,,13281,,,,,,,561.2325541000027,,,,,,,560.0324580000015,560.1156119000079,560.3325030000124,561.2178992000117,None,0,,,,694541.,001,2024-05-16_14h07.05.728,nBack,2022.2.5,60.375827451788275,
,N,None,A,,,,,0,47,47,47,,,,,,,,,13353,,,,,,,563.9324675000098,,,,,,,562.732737000013,562.832287199999,563.0327752000012,,None,1,,,,694541.,001,2024-05-16_14h07.05.728,nBack,2022.2.5,60.375827451788275,
,N,None,A,,,,,0,48,48,48,,,,,,,,,13425,,,,,,,566.6328057000064,,,,,,,565.4330812000117,565.532801600013,565.7327512000047,,None,1,,,,694541.,001,2024-05-16_14h07.05.728,nBack,2022.2.5,60.375827451788275,
,N,None,W,,,,,0,49,49,49,,,,,,,,,13497,,,,,,,569.3327870000066,,,,,,,568.1327601000085,568.2326534000022,568.4333946000115,,None,1,,,,694541.,001,2024-05-16_14h07.05.728,nBack,2022.2.5,60.375827451788275,
,Y,z,A,,,,,0,50,50,50,,,,,,,,,13550,,,,,,,571.699531300008,,573.1996595000091,,,,,570.8326872000034,570.9178167000064,571.1333564000088,,z,1,0.7651287999906344,,,694541.,001,2024-05-16_14h07.05.728,nBack,2022.2.5,60.375827451788275,
,Y,z,W,,,,,0,51,51,51,,,,,,,,,13623,,,,,,,574.3998139000032,,575.8993463000079,,,,,573.1996595000091,573.2999493000098,573.5012069000077,574.3998139000032,None,0,,,,694541.,001,2024-05-16_14h07.05.728,nBack,2022.2.5,60.375827451788275,
,N,None,V,,,,,0,52,52,52,,,,,,,,,13695,,,,,,,577.0997232000082,,578.600571300005,,,,,575.8993463000079,576.0004669000045,576.1996195000102,,None,1,,,,694541.,001,2024-05-16_14h07.05.728,nBack,2022.2.5,60.375827451788275,
,N,None,B,,,,,0,53,53,53,,,,,,,,,13768,,,,,,,579.7997514000017,,581.2995249000087,,,,,578.600571300005,578.70015840001,578.8994869000016,579.7997514000017,None,1,,,,694541.,001,2024-05-16_14h07.05.728,nBack,2022.2.5,60.375827451788275,
,N,None,Y,,,,,0,54,54,54,,,,,,,,,13841,,,,,,,582.4998809000099,,583.9996356000047,,,,,581.2995249000087,581.3999865000078,581.599810700005,582.4998809000099,None,1,,,,694541.,001,2024-05-16_14h07.05.728,nBack,2022.2.5,60.375827451788275,
,N,None,Y,,,,,0,55,55,55,,,,,,,,,13914,,,,,,,585.1999038000067,,586.7007553000003,,,,,583.9996356000047,584.1000036000041,584.2996134999994,585.1999038000067,None,1,,,,694541.,001,2024-05-16_14h07.05.728,nBack,2022.2.5,60.375827451788275,
,N,None,V,,,,,0,56,56,56,,,,,,,,,13987,,,,,,,587.9003544000007,,589.4002961000078,,,,,586.7007553000003,586.8000477000023,586.9999582000019,587.9003544000007,None,1,,,,694541.,001,2024-05-16_14h07.05.728,nBack,2022.2.5,60.375827451788275,
,N,None,V,,,,,0,57,57,57,,,,,,,,,14060,,,,,,,590.6002133000002,,592.1002643000102,,,,,589.4002961000078,589.5005342000077,589.7000124000042,590.6002133000002,None,1,,,,694541.,001,2024-05-16_14h07.05.728,nBack,2022.2.5,60.375827451788275,
,Y,z,V,,,,,0,58,58,58,,,,,,,,,14119,,,,,,,593.0669491000008,,594.567249300002,,,,,592.1002643000102,592.2001498000027,592.4001163000066,,z,1,0.8365076999907615,,,694541.,001,2024-05-16_14h07.05.728,nBack,2022.2.5,60.375827451788275,
,N,None,A,,,,,0,59,59,59,,,,,,,,,14192,,,,,,,595.7676920000085,,597.2669180000084,,,,,594.567249300002,594.6668688000063,594.8668854999996,595.7676920000085,None,1,,,,694541.,001,2024-05-16_14h07.05.728,nBack,2022.2.5,60.375827451788275,
,N,None,B,,,,,0,60,60,60,,,,,,,,,14265,,,,,,,598.4669480000011,,599.9670164000127,,,,,597.2669180000084,597.3671520000062,597.5671335000079,598.4669480000011,None,1,,,,694541.,001,2024-05-16_14h07.05.728,nBack,2022.2.5,60.375827451788275,
,Y,z,A,,,,,0,61,61,61,,,,,,,,,14331,,,,,,,601.0508248000115,,602.5517344000109,,,,,599.9670164000127,600.0670107000042,600.2670389000123,,z,1,0.9568286999856355,,,694541.,001,2024-05-16_14h07.05.728,nBack,2022.2.5,60.375827451788275,
,Y,z,B,,,,,0,62,62,62,,,,,,,,,14404,,,,,,,603.7521125000058,,,,,,,602.5517344000109,602.6509885000123,602.8672366000101,603.7521125000058,None,0,,,,694541.,001,2024-05-16_14h07.05.728,nBack,2022.2.5,60.375827451788275,
,Y,z,A,,,,,0,63,63,63,,,,,,,,,14475,,,,,,,606.4520611000044,,,,,,,605.2674092000088,605.3338442000095,605.5674550000113,606.4338770000031,None,0,,,,694541.,001,2024-05-16_14h07.05.728,nBack,2022.2.5,60.375827451788275,
,Y,z,B,,,,,0,64,64,64,,,,,,,,,14546,,,,,,,609.1340602000128,,610.6342005000042,,,,,607.9682242000126,608.0341928999987,608.2676892000018,609.1340602000128,None,0,,,,694541.,001,2024-05-16_14h07.05.728,nBack,2022.2.5,60.375827451788275,
,N,None,C,,,,,0,65,65,65,,,,,,,,,14619,,,,,,,611.8343162000092,,613.3344233000098,,,,,610.6342005000042,610.7341596000042,610.9348937000032,611.8343162000092,None,1,,,,694541.,001,2024-05-16_14h07.05.728,nBack,2022.2.5,60.375827451788275,
,N,None,V,,,,,0,66,66,66,,,,,,,,,14693,,,,,,,614.551370000001,,616.0516467000125,,,,,613.3512316000124,613.450974700012,613.6519897000107,614.551370000001,None,1,,,,694541.,001,2024-05-16_14h07.05.728,nBack,2022.2.5,60.375827451788275,
,N,None,W,,,,,0,67,67,67,,,,,,,,,14765,,,,,,,617.234460000007,,618.7345542000112,,,,,616.0516467000125,616.1351188000117,616.3525695999997,617.234460000007,None,1,,,,694541.,001,2024-05-16_14h07.05.728,nBack,2022.2.5,60.375827451788275,
,N,None,W,,,,,0,68,68,68,,,,,,,,,14838,,,,,,,619.9344410000049,,621.434683200001,,,,,618.7345542000112,618.8345356000063,619.0345949000039,619.9344410000049,None,1,,,,694541.,001,2024-05-16_14h07.05.728,nBack,2022.2.5,60.375827451788275,
,Y,z,W,,,,,0,69,69,69,,,,,,,,,14888,,,,,,,622.2528273000062,,,,,,,621.434683200001,621.534567900002,621.735900300002,,z,1,0.6970639999926789,,,694541.,001,2024-05-16_14h07.05.728,nBack,2022.2.5,60.375827451788275,
,N,None,A,,,,,0,70,70,70,,,,,,,,,14960,,,,,,,624.9516633000021,,626.4515507000033,,,,,623.7683691999991,623.8514820000128,624.0680437000119,624.9516633000021,None,1,,,,694541.,001,2024-05-16_14h07.05.728,nBack,2022.2.5,60.375827451788275,
,Y,z,W,,,,,0,71,71,71,,,,,,,,,15033,,,,,,,627.6540410000016,,,,,,,626.4515507000033,626.5521773000073,626.751713900012,627.6540410000016,None,0,,,,694541.,001,2024-05-16_14h07.05.728,nBack,2022.2.5,60.375827451788275,
,Y,z,A,,,,,0,72,72,72,,,,,,,,,15104,,,,,,,630.3517082000035,,631.8528082000121,,,,,629.1684832000028,629.2353741000115,629.4684144000057,630.3351414000063,None,0,,,,694541.,001,2024-05-16_14h07.05.728,nBack,2022.2.5,60.375827451788275,
,N,None,X,,,,,0,73,73,73,,,,,,,,,15176,,,,,,,633.0350387000071,,634.535159600011,,,,,631.8528082000121,631.9349985000008,632.1520541000064,633.0350387000071,None,1,,,,694541.,001,2024-05-16_14h07.05.728,nBack,2022.2.5,60.375827451788275,
,N,None,Y,,,,,0,74,74,74,,,,,,,,,15249,,,,,,,635.735147600004,,637.2351350000099,,,,,634.535159600011,634.6354513000115,634.8353148000024,635.735147600004,None,1,,,,694541.,001,2024-05-16_14h07.05.728,nBack,2022.2.5,60.375827451788275,
,N,None,C,,,,,0,75,75,75,,,,,,,,,15322,,,,,,,638.4521680000034,,639.9527828999999,,,,,637.2351350000099,637.3352117000031,637.5353687000024,638.4351838000002,None,1,,,,694541.,001,2024-05-16_14h07.05.728,nBack,2022.2.5,60.375827451788275,
,N,None,X,,,,,0,76,76,76,,,,,,,,,15394,,,,,,,641.1354126000078,,642.6357938000001,,,,,639.9527828999999,640.0353116000042,640.2527408000024,641.1354126000078,None,1,,,,694541.,001,2024-05-16_14h07.05.728,nBack,2022.2.5,60.375827451788275,
,N,None,B,,,,,0,77,77,77,,,,,,,,,15467,,,,,,,643.8360648000089,,645.3358163000084,,,,,642.6357938000001,642.7357332000101,642.9368612000108,643.8360648000089,None,1,,,,694541.,001,2024-05-16_14h07.05.728,nBack,2022.2.5,60.375827451788275,
,Y,z,X,,,,,0,78,78,78,,,,,,,,,15540,,,,,,,646.5358023000008,,648.0356962000078,,,,,645.3358163000084,645.4356292000011,645.6356454000052,646.5358023000008,None,0,,,,694541.,001,2024-05-16_14h07.05.728,nBack,2022.2.5,60.375827451788275,
,Y,z,B,,,,,0,79,79,79,,,,,,,,,15591,,,,,,,648.8690117000078,,650.3691896000091,,,,,648.0356962000078,648.1358337999991,648.3357722000073,,z,1,0.7148087999958079,,,694541.,001,2024-05-16_14h07.05.728,nBack,2022.2.5,60.375827451788275,
,N,None,B,,,,,0,80,80,80,,,,,,,,,15664,,,,,,,651.5694678,,653.0691316000011,,,,,650.3691896000091,650.4690278000053,650.6692350000085,651.5694678,None,1,,,,694541.,001,2024-05-16_14h07.05.728,nBack,2022.2.5,60.375827451788275,
,N,None,V,,,,,0,81,81,81,,,,,,,,,15737,,,,,,,654.2697489999991,,655.7696280000091,,,,,653.0691316000011,653.1699197999988,653.3693679999997,654.2697489999991,None,1,,,,694541.,001,2024-05-16_14h07.05.728,nBack,2022.2.5,60.375827451788275,
,Y,z,B,,,,,0,82,82,82,,,,,,,,,15810,,,,,,,656.971984200005,,,,,,,655.7696280000091,655.8698674000043,656.0723061000026,656.971984200005,None,0,,,,694541.,001,2024-05-16_14h07.05.728,nBack,2022.2.5,60.375827451788275,
,N,None,C,,,,,0,83,83,83,,,,,,,,,15882,,,,,,,659.6873982000106,,,,,,,658.486126200005,658.5718815,658.7864239000046,,None,1,,,,694541.,001,2024-05-16_14h07.05.728,nBack,2022.2.5,60.375827451788275,
,N,None,Y,,,,,0,84,84,84,,,,,,,,,15953,,,,,,,662.3531111000048,,663.8534699000011,,,,,661.1864186000021,661.2537488000089,661.4865076999995,662.3531111000048,None,1,,,,694541.,001,2024-05-16_14h07.05.728,nBack,2022.2.5,60.375827451788275,
,Y,z,C,,,,,0,85,85,85,,,,,,,,,16026,,,,,,,665.0535993000085,,666.5535321000061,,,,,663.8534699000011,663.9534958000004,664.1532920000027,665.0535993000085,None,0,,,,694541.,001,2024-05-16_14h07.05.728,nBack,2022.2.5,60.375827451788275,
,N,None,B,,,,,0,86,86,86,,,,,,,,,16099,,,,,,,667.7532063000108,,669.2534988000116,,,,,666.5535321000061,666.6533724000037,666.8534149000043,667.7532063000108,None,1,,,,694541.,001,2024-05-16_14h07.05.728,nBack,2022.2.5,60.375827451788275,
,N,None,X,,,,,0,87,87,87,,,,,,,,,16172,,,,,,,670.4534415000089,,671.9541178000072,,,,,669.2534988000116,669.353340600006,669.5541637999995,670.4534415000089,None,1,,,,694541.,001,2024-05-16_14h07.05.728,nBack,2022.2.5,60.375827451788275,
,Y,z,B,,,,,0,88,88,88,,,,,,,,,16219,,,,,,,672.7201370000112,,674.2205205000064,,,,,671.9541178000072,672.0535694999999,672.2538137000083,,z,1,0.6460992999927839,,,694541.,001,2024-05-16_14h07.05.728,nBack,2022.2.5,60.375827451788275,
,N,None,C,,,,,0,89,89,89,,,,,,,,,16292,,,,,,,675.4200553000119,,676.9202303000056,,,,,674.2205205000064,674.3205215000053,674.5205545000063,675.4200553000119,None,1,,,,694541.,001,2024-05-16_14h07.05.728,nBack,2022.2.5,60.375827451788275,
,N,None,Y,,,,,0,90,90,90,,,,,,,,,16365,,,,,,,678.1204329000029,,679.6204514000128,,,,,676.9202303000056,677.0214852000063,677.2205343000096,678.1204329000029,None,1,,,,694541.,001,2024-05-16_14h07.05.728,nBack,2022.2.5,60.375827451788275,
,N,None,Y,,,,,0,91,91,91,,,,,,,,,16438,,,,,,,680.8204927000043,,682.3207026000018,,,,,679.6204514000128,679.7203590999998,679.9202472000034,680.8204927000043,None,1,,,,694541.,001,2024-05-16_14h07.05.728,nBack,2022.2.5,60.375827451788275,
,N,None,C,,,,,0,92,92,92,,,,,,,,,16491,,,,,,,683.1873149000021,,684.6874745000096,,,,,682.3207026000018,682.4206488000054,682.6207627000113,,z,0,0.7380498999846168,,,694541.,001,2024-05-16_14h07.05.728,nBack,2022.2.5,60.375827451788275,
,N,None,W,,,,,0,93,93,93,,,,,,,,,16564,,,,,,,685.8872517000127,,687.3875479999988,,,,,684.6874745000096,684.7872184000007,684.9873612000083,685.8872517000127,None,1,,,,694541.,001,2024-05-16_14h07.05.728,nBack,2022.2.5,60.375827451788275,
,N,None,X,,,,,0,94,94,94,,,,,,,,,16637,,,,,,,688.5876382999995,,690.0876790000038,,,,,687.3875479999988,687.4874578000017,687.6875328000024,688.5876382999995,None,1,,,,694541.,001,2024-05-16_14h07.05.728,nBack,2022.2.5,60.375827451788275,
,N,None,V,,,,,0,95,95,95,,,,,,,,,16710,,,,,,,691.2876549000066,,692.7876485000015,,,,,690.0876790000038,690.1878791000054,690.3884155000123,691.2876549000066,None,1,,,,694541.,001,2024-05-16_14h07.05.728,nBack,2022.2.5,60.375827451788275,
,N,None,C,,,,,0,96,96,96,,,,,,,,,16783,,,,,,,693.9875327000045,,695.4877612000128,,,,,692.7876485000015,692.8889580000105,693.0876453000092,693.9875327000045,None,1,,,,694541.,001,2024-05-16_14h07.05.728,nBack,2022.2.5,60.375827451788275,
,N,None,B,,,,,0,97,97,97,,,,,,,,,16856,,,,,,,696.6877106000029,,698.1875782999996,,,,,695.4877612000128,695.5875785000098,695.7877619000064,696.6877106000029,None,1,,,,694541.,001,2024-05-16_14h07.05.728,nBack,2022.2.5,60.375827451788275,
,Y,z,C,,,,,0,98,98,98,,,,,,,,,16929,,,,,,,699.3881647000089,,700.8878826,,,,,698.1875782999996,698.2878933000029,698.4876364000083,699.3881647000089,None,0,,,,694541.,001,2024-05-16_14h07.05.728,nBack,2022.2.5,60.375827451788275,
,N,None,C,,,,,0,99,99,99,,,,,,,,,17002,,,,,,,702.0882229999988,,703.5879940000013,,,,,700.8878826,700.9885419000057,701.1877410000016,702.0882229999988,None,1,,,,694541.,001,2024-05-16_14h07.05.728,nBack,2022.2.5,60.375827451788275,
,N,None,X,,,,,0,100,100,100,,,,,,,,,17075,,,,,,,704.7881990000024,,706.2882336000039,,,,,703.5879940000013,703.6880160000001,703.8880295999988,704.7881990000024,None,1,,,,694541.,001,2024-05-16_14h07.05.728,nBack,2022.2.5,60.375827451788275,
,Y,z,C,,,,,0,101,101,101,,,,,,,,,17148,,,,,,,707.4883663000073,,708.9883644000074,,,,,706.2882336000039,706.388583500011,706.5886640000099,707.4883663000073,None,0,,,,694541.,001,2024-05-16_14h07.05.728,nBack,2022.2.5,60.375827451788275,
,N,None,V,,,,,0,102,102,102,,,,,,,,,17221,,,,,,,710.1883545000019,,711.688215400005,,,,,708.9883644000074,709.0881889000011,709.2881735000119,710.1883545000019,None,1,,,,694541.,001,2024-05-16_14h07.05.728,nBack,2022.2.5,60.375827451788275,
,Y,z,C,,,,,0,103,103,103,,,,,,,,,17270,,,,,,,712.4883914000093,,713.9884439000016,,,,,711.688215400005,711.7883049000084,711.9881651000032,,z,1,0.6708450000005541,,,694541.,001,2024-05-16_14h07.05.728,nBack,2022.2.5,60.375827451788275,
,N,None,C,,,,,0,104,104,104,,,,,,,,,17342,,,,,,,715.188455800002,,716.6889174000098,,,,,713.9884439000016,714.0886562000087,714.2892001,,None,1,,,,694541.,001,2024-05-16_14h07.05.728,nBack,2022.2.5,60.375827451788275,
,N,None,W,,,,,0,105,105,105,,,,,,,,,17415,,,,,,,717.888652300011,,719.388686700011,,,,,716.6889174000098,716.7886374000082,716.9886516000115,717.888652300011,None,1,,,,694541.,001,2024-05-16_14h07.05.728,nBack,2022.2.5,60.375827451788275,
,N,None,Y,,,,,0,106,106,106,,,,,,,,,17488,,,,,,,720.5894076000113,,722.0893094000057,,,,,719.388686700011,719.4886566000059,719.6886220000015,720.5894076000113,None,1,,,,694541.,001,2024-05-16_14h07.05.728,nBack,2022.2.5,60.375827451788275,
,N,None,B,,,,,0,107,107,107,,,,,,,,,17561,,,,,,,723.2895030000072,,724.788801200004,,,,,722.0893094000057,722.1893945000047,722.3893070000049,723.2895030000072,None,1,,,,694541.,001,2024-05-16_14h07.05.728,nBack,2022.2.5,60.375827451788275,
,Y,z,Y,,,,,0,108,108,108,,,,,,,,,17633,,,,,,,725.9889519999997,,727.4887929000106,,,,,724.788801200004,724.8725536999991,725.0887924999988,725.9727329000016,None,0,,,,694541.,001,2024-05-16_14h07.05.728,nBack,2022.2.5,60.375827451788275,
,N,None,V,,,,,0,109,109,109,,,,,,,,,17705,,,,,,,728.6891617000074,,730.1891500000056,,,,,727.4887929000106,727.5725938000105,727.7888562000007,728.6739084000001,None,1,,,,694541.,001,2024-05-16_14h07.05.728,nBack,2022.2.5,60.375827451788275,
,N,None,V,,,,,0,110,110,110,,,,,,,,,17777,,,,,,,731.3895432999998,,,,,,,730.1891500000056,730.2738125000033,730.4890154000022,,None,1,,,,694541.,001,2024-05-16_14h07.05.728,nBack,2022.2.5,60.375827451788275,
,N,None,Y,,,,,0,111,111,111,,,,,,,,,17849,,,,,,,734.0738438000117,,735.5896524999989,,,,,732.8893637000001,732.9727577000012,733.1892343000072,734.0738438000117,None,1,,,,694541.,001,2024-05-16_14h07.05.728,nBack,2022.2.5,60.375827451788275,
,N,None,A,,,,,0,112,112,112,,,,,,,,,17921,,,,,,,736.7727427000063,,738.2733319000108,,,,,735.5896524999989,735.6731167000107,735.8897050000087,736.7727427000063,None,1,,,,694541.,001,2024-05-16_14h07.05.728,nBack,2022.2.5,60.375827451788275,
,Y,z,Y,,,,,0,113,113,113,,,,,,,,,17984,,,,,,,739.3073556000018,,,,,,,738.2733319000108,738.3732638000074,738.5728082000132,,z,1,0.9133634999889182,,,694541.,001,2024-05-16_14h07.05.728,nBack,2022.2.5,60.375827451788275,
,N,None,Y,,,,,0,114,114,114,,,,,,,,,18056,,,,,,,742.0078582999995,,,,,,,740.82289760001,740.906977000006,741.1230978000094,742.0078582999995,None,1,,,,694541.,001,2024-05-16_14h07.05.728,nBack,2022.2.5,60.375827451788275,
,N,None,C,,,,,0,115,115,115,,,,,,,,,18128,,,,,,,744.7234555000032,,,,,,,743.523045400012,743.6077348000108,743.8230721,,None,1,,,,694541.,001,2024-05-16_14h07.05.728,nBack,2022.2.5,60.375827451788275,
,Y,z,Y,,,,,0,116,116,116,,,,,,,,,18152,,,,,,,746.6068460000097,,748.1068705000071,,,,,746.223223500012,746.3072194000124,746.5231601000123,,z,1,0.26751529998728074,,,694541.,001,2024-05-16_14h07.05.728,nBack,2022.2.5,60.375827451788275,
,N,None,Y,,,,,0,117,117,117,,,,,,,,,18224,,,,,,,749.3080064000096,,,,,,,748.1068705000071,748.1898833000014,748.4067830999993,749.2900416000048,None,1,,,,694541.,001,2024-05-16_14h07.05.728,nBack,2022.2.5,60.375827451788275,
,N,None,A,,,,,0,118,118,118,,,,,,,,,18296,,,,,,,752.0066649000073,,753.5069172000076,,,,,750.8232892000087,750.9076288000069,751.1231495000102,752.0066649000073,None,1,,,,694541.,001,2024-05-16_14h07.05.728,nBack,2022.2.5,60.375827451788275,
,N,None,A,,,,,0,119,119,119,,,,,,,,,18368,,,,,,,754.6903361000004,,756.1903328000044,,,,,753.5069172000076,753.5901564000087,753.8073395000101,754.6903361000004,None,1,,,,694541.,001,2024-05-16_14h07.05.728,nBack,2022.2.5,60.375827451788275,
,N,None,C,,,,,0,120,120,120,,,,,,,,,18441,,,,,,,757.3904098000057,,758.8903622000071,,,,,756.1903328000044,756.2902280000126,756.4902146000095,757.3904098000057,None,1,,,,694541.,001,2024-05-16_14h07.05.728,nBack,2022.2.5,60.375827451788275,
,N,None,Y,,,,,0,121,121,121,,,,,,,,,18515,,,,,,,760.1078436000098,,761.6073915000015,,,,,758.8903622000071,758.9928142999997,759.1903388000064,760.1078436000098,None,1,,,,694541.,001,2024-05-16_14h07.05.728,nBack,2022.2.5,60.375827451788275,
,N,None,V,,,,,0,122,122,122,,,,,,,,,18587,,,,,,,762.7907058000128,,764.2906092000048,,,,,761.6073915000015,761.6903259000101,761.9077760000073,762.7907058000128,None,1,,,,694541.,001,2024-05-16_14h07.05.728,nBack,2022.2.5,60.375827451788275,
,N,None,B,,,,,0,123,123,123,,,,,,,,,18660,,,,,,,765.4934553000057,,767.0075233000098,,,,,764.2906092000048,764.3905692000117,764.5907084000064,765.4934553000057,None,1,,,,694541.,001,2024-05-16_14h07.05.728,nBack,2022.2.5,60.375827451788275,
,N,None,B,,,,,0,124,124,124,,,,,,,,,18732,,,,,,,768.2077090000093,,,,,,,767.0075233000098,767.0928344000131,767.3073835000105,,None,1,,,,694541.,001,2024-05-16_14h07.05.728,nBack,2022.2.5,60.375827451788275,
,N,None,X,,,,,0,125,125,125,,,,,,,,,18804,,,,,,,770.9081622000085,,,,,,,769.7075692000071,769.7934662000043,770.0078265000047,,None,1,,,,694541.,001,2024-05-16_14h07.05.728,nBack,2022.2.5,60.375827451788275,
,N,None,A,,,,,0,126,126,126,,,,,,,,,18876,,,,,,,773.6100523000059,,,,,,,772.408868700004,772.4933423000039,772.7082437000063,,None,1,,,,694541.,001,2024-05-16_14h07.05.728,nBack,2022.2.5,60.375827451788275,
,Y,z,X,,,,,0,127,127,127,,,,,,,,,18948,,,,,,,776.3086516000039,,,,,,,775.1076954000018,775.19505390001,775.4090608000115,,None,0,,,,694541.,001,2024-05-16_14h07.05.728,nBack,2022.2.5,60.375827451788275,
,Y,z,A,,,,,0,128,128,128,,,,,,,,,19020,,,,,,,779.0081998000096,,,,,,,777.8081849000009,777.8932238999987,778.1076396999997,,None,0,,,,694541.,001,2024-05-16_14h07.05.728,nBack,2022.2.5,60.375827451788275,
,N,None,B,,,,,0,129,129,129,,,,,,,,,19092,,,,,,,781.7080896000116,,,,,,,780.5077610000008,780.5933553000068,780.8080427000095,,None,1,,,,694541.,001,2024-05-16_14h07.05.728,nBack,2022.2.5,60.375827451788275,
,N,None,C,,,,,0,130,130,130,,,,,,,,,19164,,,,,,,784.4084226000123,,,,,,,783.2080145000073,783.2928318000049,783.5079795000056,,None,1,,,,694541.,001,2024-05-16_14h07.05.728,nBack,2022.2.5,60.375827451788275,
,N,None,Y,,,,,0,131,131,131,,,,,,,,,19236,,,,,,,787.1083828000119,,,,,,,785.9083634999988,785.9931832000002,786.2084910000121,,None,1,,,,694541.,001,2024-05-16_14h07.05.728,nBack,2022.2.5,60.375827451788275,
,N,None,X,,,,,0,132,132,132,,,,,,,,,19308,,,,,,,789.7932998000033,,,,,,,788.6082282999996,788.6923389000003,788.9081581000064,789.7932998000033,None,1,,,,694541.,001,2024-05-16_14h07.05.728,nBack,2022.2.5,60.375827451788275,
,N,None,W,,,,,0,133,133,133,,,,,,,,,19380,,,,,,,792.4928103999991,,793.9924032999988,,,,,791.3083431000123,791.3926145000005,791.6082932999998,792.4928103999991,None,1,,,,694541.,001,2024-05-16_14h07.05.728,nBack,2022.2.5,60.375827451788275,
,Y,z,X,,,,,0,134,134,134,,,,,,,,,19439,,,,,,,794.9587847000075,,796.4587174000044,,,,,793.9924032999988,794.0928121000034,794.2923985000089,,z,1,0.846820699996897,,,694541.,001,2024-05-16_14h07.05.728,nBack,2022.2.5,60.375827451788275,
,N,None,V,,,,,0,135,135,135,,,,,,,,,19512,,,,,,,797.6587858999992,,799.1598048000014,,,,,796.4587174000044,796.5592061000061,796.7588590000087,797.6587858999992,None,1,,,,694541.,001,2024-05-16_14h07.05.728,nBack,2022.2.5,60.375827451788275,
,N,None,C,,,,,0,136,136,136,,,,,,,,,19585,,,,,,,800.3591353000083,,801.8600704000128,,,,,799.1598048000014,799.2598230000003,799.4753373999993,800.3591353000083,None,1,,,,694541.,001,2024-05-16_14h07.05.728,nBack,2022.2.5,60.375827451788275,
,N,None,C,,,,,0,137,137,137,,,,,,,,,19658,,,,,,,803.0593966000015,,804.5591457000119,,,,,801.8600704000128,801.9592764000117,802.1597112000018,803.0593966000015,None,1,,,,694541.,001,2024-05-16_14h07.05.728,nBack,2022.2.5,60.375827451788275,
,N,None,X,,,,,0,138,138,138,,,,,,,,,19731,,,,,,,805.7591083000007,,807.2591627000074,,,,,804.5591457000119,804.659252700003,804.8592088000005,805.7591083000007,None,1,,,,694541.,001,2024-05-16_14h07.05.728,nBack,2022.2.5,60.375827451788275,
,N,None,Y,,,,,0,139,139,139,,,,,,,,,19804,,,,,,,808.4590331000072,,809.9591236000124,,,,,807.2591627000074,807.3592619000119,807.5594756000064,808.4590331000072,None,1,,,,694541.,001,2024-05-16_14h07.05.728,nBack,2022.2.5,60.375827451788275,
,N,None,A,,,,,0,140,140,140,,,,,,,,,19876,,,,,,,811.1598838000064,,812.6599121000036,,,,,809.9591236000124,810.042483600002,810.259160200003,811.1424853000062,None,1,,,,694541.,001,2024-05-16_14h07.05.728,nBack,2022.2.5,60.375827451788275,
,N,None,V,,,,,0,141,141,141,,,,,,,,,19949,,,,,,,813.8592978000088,,815.3601305000047,,,,,812.6599121000036,812.7595571000129,812.9594421000074,813.8592978000088,None,1,,,,694541.,001,2024-05-16_14h07.05.728,nBack,2022.2.5,60.375827451788275,
,Y,z,A,,,,,0,142,142,142,,,,,,,,,19992,,,,,,,816.0597756000061,,817.5608563999995,,,,,815.3601305000047,815.4596393000102,815.659739499999,,z,1,0.5675096999912057,,,694541.,001,2024-05-16_14h07.05.728,nBack,2022.2.5,60.375827451788275,
,Y,z,V,,,,,0,143,143,143,,,,,,,,,20064,,,,,,,818.7431708000076,,820.2428547000018,,,,,817.5608563999995,817.6425238000083,817.87613650001,818.7431708000076,None,0,,,,694541.,001,2024-05-16_14h07.05.728,nBack,2022.2.5,60.375827451788275,
,N,None,W,,,,,0,144,144,144,,,,,,,,,20137,,,,,,,821.4429289000109,,822.9428957000055,,,,,820.2428547000018,820.3431949000078,820.5425997999992,821.4429289000109,None,1,,,,694541.,001,2024-05-16_14h07.05.728,nBack,2022.2.5,60.375827451788275,
,Y,z,V,,,,,0,145,145,145,,,,,,,,,20199,,,,,,,823.9599526000093,,825.459591900013,,,,,822.9428957000055,823.0429128000105,823.2428165000019,,z,1,0.8977320999838412,,,694541.,001,2024-05-16_14h07.05.728,nBack,2022.2.5,60.375827451788275,
,N,None,Y,,,,,0,146,146,146,,,,,,,,,20272,,,,,,,826.6598339000047,,828.1601446999994,,,,,825.459591900013,825.559711000009,825.759954100009,826.6598339000047,None,1,,,,694541.,001,2024-05-16_14h07.05.728,nBack,2022.2.5,60.375827451788275,
,,,,,,,,,,,,,,,,,,828.1601446999994,828.6601563000004,,,,,,,,,,,,,,,,,,,,,,828.6601563000004,841.754571100013,,,,,,,
