stimuli_letter,target,correct_key,trialsOne.thisRepN,trialsOne.thisTrialN,trialsOne.thisN,trialsOne.thisIndex,WelcomeScreenText.started,WelcomeScreenText.stopped,WelcomeInstructions.started,keyWelcome.started,keyWelcome.keys,keyWelcome.rt,text.started,text.stopped,eegtime,n_back_one.started,Key_one.started,n_back_one.stopped,Key_one.stopped,Key_one.keys,Key_one.corr,ISI.started,ISI.stopped,Key_one.rt,participant,session,date,expName,psychopyVersion,frameRate,
,,,,,,,22.527329099999406,24.526780600001075,24.526780600001075,25.526537600000665,z,13.455032599998958,,,,,,,,,,,,,713897,001,2024-05-15_17h25.58.759,nBack,2022.2.5,59.97951099860911,
V,None,None,0,0,0,0,,,,,,,39.01057010000113,39.53679229999943,72,39.53679229999943,39.61059229999955,39.84410460000072,40.710514200000034,None,1,40.710514200000034,42.21083859999999,,713897,001,2024-05-15_17h25.58.759,nBack,2022.2.5,59.97951099860911,
X,N,None,0,1,1,1,,,,,,,,,145,42.21083859999999,42.31070010000076,42.511449900001026,43.410659600000145,None,1,43.410659600000145,44.91078790000029,,713897,001,2024-05-15_17h25.58.759,nBack,2022.2.5,59.97951099860911,
A,N,None,0,2,2,2,,,,,,,,,217,44.91078790000029,44.99433610000051,45.21093550000114,46.09395179999956,None,1,46.11076130000038,47.61122980000073,,713897,001,2024-05-15_17h25.58.759,nBack,2022.2.5,59.97951099860911,
A,Y,z,0,3,3,3,,,,,,,,,245,47.61122980000073,47.69609049999963,47.91067330000078,,z,1,48.06091120000019,49.560668399999486,0.3339568999999756,713897,001,2024-05-15_17h25.58.759,nBack,2022.2.5,59.97951099860911,
X,N,None,0,4,4,4,,,,,,,,,318,49.560668399999486,49.660893100000976,49.860758500000884,50.76105690000077,None,1,50.76105690000077,52.26141180000013,,713897,001,2024-05-15_17h25.58.759,nBack,2022.2.5,59.97951099860911,
B,N,None,0,5,5,5,,,,,,,,,391,52.26141180000013,52.36113040000055,52.561385099999825,53.46127630000046,None,1,53.46127630000046,54.961049900000944,,713897,001,2024-05-15_17h25.58.759,nBack,2022.2.5,59.97951099860911,
B,Y,z,0,6,6,6,,,,,,,,,464,54.961049900000944,55.061186500000986,55.26121240000066,56.16108300000087,None,0,56.16108300000087,57.66136130000086,,713897,001,2024-05-15_17h25.58.759,nBack,2022.2.5,59.97951099860911,
X,N,None,0,7,7,7,,,,,,,,,537,57.66136130000086,57.761329599999954,57.961454300000696,58.861753999999564,None,1,58.861753999999564,60.36237160000019,,713897,001,2024-05-15_17h25.58.759,nBack,2022.2.5,59.97951099860911,
Y,N,None,0,8,8,8,,,,,,,,,610,60.36237160000019,60.461254499999995,60.66128170000047,61.5613656000005,None,1,61.5613656000005,63.0614743999995,,713897,001,2024-05-15_17h25.58.759,nBack,2022.2.5,59.97951099860911,
Y,Y,z,0,9,9,9,,,,,,,,,683,63.0614743999995,63.16150440000092,63.36134409999977,64.2616536000005,None,0,64.2616536000005,65.7614037000003,,713897,001,2024-05-15_17h25.58.759,nBack,2022.2.5,59.97951099860911,
B,N,None,0,10,10,10,,,,,,,,,756,65.7614037000003,65.86156210000081,66.06171119999999,66.9614388000009,None,1,66.9614388000009,68.46208690000094,,713897,001,2024-05-15_17h25.58.759,nBack,2022.2.5,59.97951099860911,
Y,N,None,0,11,11,11,,,,,,,,,829,68.46208690000094,68.56229639999947,68.7616994,69.66201440000077,None,1,69.66201440000077,71.16172279999955,,713897,001,2024-05-15_17h25.58.759,nBack,2022.2.5,59.97951099860911,
V,N,None,0,12,12,12,,,,,,,,,902,71.16172279999955,71.26186349999989,71.46168779999971,72.36207289999948,None,1,72.36207289999948,73.86196500000005,,713897,001,2024-05-15_17h25.58.759,nBack,2022.2.5,59.97951099860911,
C,N,None,0,13,13,13,,,,,,,,,975,73.86196500000005,73.9619488999997,74.16188150000016,75.06205799999952,None,1,75.06205799999952,76.56183129999954,,713897,001,2024-05-15_17h25.58.759,nBack,2022.2.5,59.97951099860911,
C,Y,z,0,14,14,14,,,,,,,,,1048,76.56183129999954,76.66196640000089,76.86195580000094,77.76226920000045,None,0,77.76226920000045,79.26179930000035,,713897,001,2024-05-15_17h25.58.759,nBack,2022.2.5,59.97951099860911,
V,N,None,0,15,15,15,,,,,,,,,1095,79.26179930000035,79.36240680000083,79.56187909999971,,z,0,80.02878220000093,81.5286914999997,0.6396998999989592,713897,001,2024-05-15_17h25.58.759,nBack,2022.2.5,59.97951099860911,
X,N,None,0,16,16,16,,,,,,,,,1168,81.5286914999997,81.62906500000099,81.82873370000016,82.72888550000062,None,1,82.72888550000062,84.2288668000001,,713897,001,2024-05-15_17h25.58.759,nBack,2022.2.5,59.97951099860911,
Y,N,None,0,17,17,17,,,,,,,,,1241,84.2288668000001,84.32959230000051,84.52894000000015,85.42891380000037,None,1,85.42891380000037,86.92904640000052,,713897,001,2024-05-15_17h25.58.759,nBack,2022.2.5,59.97951099860911,
C,N,None,0,18,18,18,,,,,,,,,1314,86.92904640000052,87.02893869999934,87.22918190000019,88.12940080000044,None,1,88.12940080000044,89.62910750000083,,713897,001,2024-05-15_17h25.58.759,nBack,2022.2.5,59.97951099860911,
C,Y,z,0,19,19,19,,,,,,,,,1387,89.62910750000083,89.72920820000036,89.92929809999987,90.82940640000015,None,0,90.82940640000015,92.32953000000089,,713897,001,2024-05-15_17h25.58.759,nBack,2022.2.5,59.97951099860911,
A,N,None,0,20,20,20,,,,,,,,,1460,92.32953000000089,92.42982520000078,92.62938020000001,93.52984500000093,None,1,93.52984500000093,95.02961900000082,,713897,001,2024-05-15_17h25.58.759,nBack,2022.2.5,59.97951099860911,
W,N,None,0,21,21,21,,,,,,,,,1533,95.02961900000082,95.12935450000077,95.3299035,96.22947440000098,None,1,96.22947440000098,97.72937740000089,,713897,001,2024-05-15_17h25.58.759,nBack,2022.2.5,59.97951099860911,
X,N,None,0,22,22,22,,,,,,,,,1606,97.72937740000089,97.82937750000019,98.02928280000015,98.9293918000003,None,1,98.9293918000003,,,713897,001,2024-05-15_17h25.58.759,nBack,2022.2.5,59.97951099860911,
X,Y,z,0,23,23,23,,,,,,,,,1679,100.43019690000074,100.53012839999974,100.7297262000011,101.62968069999988,None,0,101.62968069999988,103.12973070000044,,713897,001,2024-05-15_17h25.58.759,nBack,2022.2.5,59.97951099860911,
A,N,None,0,24,24,24,,,,,,,,,1752,103.12973070000044,103.22987250000006,103.42990479999935,104.32981680000012,None,1,104.32981680000012,105.8302345000011,,713897,001,2024-05-15_17h25.58.759,nBack,2022.2.5,59.97951099860911,
X,N,None,0,25,25,25,,,,,,,,,1778,105.8302345000011,105.92985349999981,106.12992760000088,,z,0,106.2468454000009,107.74687529999937,0.28671179999946617,713897,001,2024-05-15_17h25.58.759,nBack,2022.2.5,59.97951099860911,
X,Y,z,0,26,26,26,,,,,,,,,1851,107.74687529999937,107.84845420000056,108.04673340000045,,None,0,108.96314100000018,,,713897,001,2024-05-15_17h25.58.759,nBack,2022.2.5,59.97951099860911,
C,N,None,0,27,27,27,,,,,,,,,1922,110.4634960000003,110.53038130000095,110.76337050000075,111.63061270000071,None,1,111.6468989999994,113.1472104000004,,713897,001,2024-05-15_17h25.58.759,nBack,2022.2.5,59.97951099860911,
V,N,None,0,28,28,28,,,,,,,,,1995,113.1472104000004,113.24759350000022,113.44721390000086,,None,1,114.3636891999995,,,713897,001,2024-05-15_17h25.58.759,nBack,2022.2.5,59.97951099860911,
Y,N,None,0,29,29,29,,,,,,,,,2066,115.86342630000036,115.93064210000011,116.16404920000059,117.03040139999939,None,1,117.03040139999939,118.53024820000064,,713897,001,2024-05-15_17h25.58.759,nBack,2022.2.5,59.97951099860911,
X,N,None,0,30,30,30,,,,,,,,,2111,118.53024820000064,118.63037450000047,118.83039970000027,,z,0,119.26376150000033,120.76372919999994,0.6137158999990788,713897,001,2024-05-15_17h25.58.759,nBack,2022.2.5,59.97951099860911,
B,N,None,0,31,31,31,,,,,,,,,2184,120.76372919999994,120.86368089999996,121.06375560000015,121.96391690000019,None,1,121.96391690000019,123.46371060000092,,713897,001,2024-05-15_17h25.58.759,nBack,2022.2.5,59.97951099860911,
W,N,None,0,32,32,32,,,,,,,,,2257,123.46371060000092,123.56375440000011,123.76388750000115,124.66373589999966,None,1,124.66373589999966,126.16435670000101,,713897,001,2024-05-15_17h25.58.759,nBack,2022.2.5,59.97951099860911,
B,N,None,0,33,33,33,,,,,,,,,2330,126.16435670000101,126.26410820000092,126.46388680000018,127.36381830000028,None,1,127.36381830000028,128.8639261999997,,713897,001,2024-05-15_17h25.58.759,nBack,2022.2.5,59.97951099860911,
B,Y,z,0,34,34,34,,,,,,,,,2403,128.8639261999997,128.96397629999956,129.16428590000032,130.06426350000038,None,0,130.06426350000038,131.56626440000036,,713897,001,2024-05-15_17h25.58.759,nBack,2022.2.5,59.97951099860911,
W,N,None,0,35,35,35,,,,,,,,,2426,131.56626440000036,131.6478146999998,131.88117240000065,,z,0,131.93085679999967,133.43110669999987,0.2543350999985705,713897,001,2024-05-15_17h25.58.759,nBack,2022.2.5,59.97951099860911,
W,Y,z,0,36,36,36,,,,,,,,,2499,133.43110669999987,133.5309247999994,133.73097249999955,134.63087470000028,None,0,134.63087470000028,136.13123409999935,,713897,001,2024-05-15_17h25.58.759,nBack,2022.2.5,59.97951099860911,
W,Y,z,0,37,37,37,,,,,,,,,2572,136.13123409999935,136.23110350000024,136.4315391,137.33103160000064,None,0,137.33103160000064,138.8312850000002,,713897,001,2024-05-15_17h25.58.759,nBack,2022.2.5,59.97951099860911,
C,N,None,0,38,38,38,,,,,,,,,2645,138.8312850000002,138.9316032000006,139.1312725000007,140.03110519999973,None,1,140.03110519999973,141.53113590000066,,713897,001,2024-05-15_17h25.58.759,nBack,2022.2.5,59.97951099860911,
Y,N,None,0,39,39,39,,,,,,,,,2717,141.53113590000066,141.6146764999994,141.83189200000015,142.7148546999997,None,1,142.7148546999997,144.2148543000003,,713897,001,2024-05-15_17h25.58.759,nBack,2022.2.5,59.97951099860911,
A,N,None,0,40,40,40,,,,,,,,,2790,144.2148543000003,144.31507509999938,144.515151900001,145.41489680000086,None,1,145.41489680000086,146.91564450000078,,713897,001,2024-05-15_17h25.58.759,nBack,2022.2.5,59.97951099860911,
A,Y,z,0,41,41,41,,,,,,,,,2863,146.91564450000078,147.0154806999999,147.21553239999957,148.11542969999937,None,0,148.13154170000053,,,713897,001,2024-05-15_17h25.58.759,nBack,2022.2.5,59.97951099860911,
Y,N,None,0,42,42,42,,,,,,,,,2935,149.6313752999995,149.7152812000004,149.93157679999968,150.8155958999996,None,1,150.8155958999996,152.31517440000061,,713897,001,2024-05-15_17h25.58.759,nBack,2022.2.5,59.97951099860911,
W,N,None,0,43,43,43,,,,,,,,,2964,152.33228670000062,152.41565919999994,152.63197720000062,,z,0,152.78208600000107,154.2824244000003,0.33840199999758624,713897,001,2024-05-15_17h25.58.759,nBack,2022.2.5,59.97951099860911,
B,N,None,0,44,44,44,,,,,,,,,3037,154.2824244000003,154.38235780000105,154.59842870000102,155.48239359999934,None,1,155.48239359999934,156.9821465999994,,713897,001,2024-05-15_17h25.58.759,nBack,2022.2.5,59.97951099860911,
Y,N,None,0,45,45,45,,,,,,,,,3110,156.9821465999994,157.08221390000108,157.2822414000002,158.18234940000002,None,1,158.18234940000002,159.68238920000113,,713897,001,2024-05-15_17h25.58.759,nBack,2022.2.5,59.97951099860911,
C,N,None,0,46,46,46,,,,,,,,,3182,159.68238920000113,159.76565429999937,159.98208370000066,160.86559959999977,None,1,160.88265820000015,162.38259590000052,,713897,001,2024-05-15_17h25.58.759,nBack,2022.2.5,59.97951099860911,
C,Y,z,0,47,47,47,,,,,,,,,3255,162.38259590000052,162.4666945000008,162.68249370000012,163.58243949999996,None,0,163.58243949999996,,,713897,001,2024-05-15_17h25.58.759,nBack,2022.2.5,59.97951099860911,
V,N,None,0,48,48,48,,,,,,,,,3282,165.08223139999973,165.1821627999998,165.38244570000097,,z,0,165.51615010000023,167.0159162,0.3125661999984004,713897,001,2024-05-15_17h25.58.759,nBack,2022.2.5,59.97951099860911,
B,N,None,0,49,49,49,,,,,,,,,3355,167.0159162,167.11611860000085,167.31606099999954,168.2158503999999,None,1,168.2158503999999,169.7160887000009,,713897,001,2024-05-15_17h25.58.759,nBack,2022.2.5,59.97951099860911,
X,N,None,0,50,50,50,,,,,,,,,3428,169.7160887000009,169.81673880000017,170.0162438999996,170.9165709000008,None,1,170.9165709000008,172.41602150000108,,713897,001,2024-05-15_17h25.58.759,nBack,2022.2.5,59.97951099860911,
X,Y,z,0,51,51,51,,,,,,,,,3501,172.41602150000108,172.5158905999997,172.71586770000067,173.61645110000063,None,0,173.61645110000063,175.1160863999994,,713897,001,2024-05-15_17h25.58.759,nBack,2022.2.5,59.97951099860911,
V,N,None,0,52,52,52,,,,,,,,,3573,175.1160863999994,175.2162776999994,175.41631310000048,,None,1,176.31661170000007,,,713897,001,2024-05-15_17h25.58.759,nBack,2022.2.5,59.97951099860911,
Y,N,None,0,53,53,53,,,,,,,,,3594,177.81606570000076,177.91636239999934,178.11668950000058,,z,0,178.14962729999934,179.65009740000096,0.20773099999860278,713897,001,2024-05-15_17h25.58.759,nBack,2022.2.5,59.97951099860911,
B,N,None,0,54,54,54,,,,,,,,,3667,179.65009740000096,179.74958359999982,179.9497467000001,180.8498808000004,None,1,180.8498808000004,182.3499412000001,,713897,001,2024-05-15_17h25.58.759,nBack,2022.2.5,59.97951099860911,
B,Y,z,0,55,55,55,,,,,,,,,3740,182.3499412000001,182.44980179999948,182.64964320000036,183.5499491999999,None,0,183.5499491999999,185.05042160000085,,713897,001,2024-05-15_17h25.58.759,nBack,2022.2.5,59.97951099860911,
B,Y,z,0,56,56,56,,,,,,,,,3767,185.05042160000085,185.15933179999956,185.3500795,,z,1,185.4892751999996,,0.3087519999990036,713897,001,2024-05-15_17h25.58.759,nBack,2022.2.5,59.97951099860911,
A,N,None,0,57,57,57,,,,,,,,,3836,187.03352110000014,187.07121420000112,187.33663160000106,,None,1,188.19970810000086,,,713897,001,2024-05-15_17h25.58.759,nBack,2022.2.5,59.97951099860911,
,,,,,,,,,,,,,,,3886,189.74244920000092,189.7841511000006,190.0511101000011,,,,,,,,,,,,,
