stimuli_letter,target,correct_key,Letter_stimulus,trialsOne.thisRepN,trialsOne.thisTrialN,trialsOne.thisN,trialsOne.thisIndex,trialsTwo.thisRepN,trialsTwo.thisTrialN,trialsTwo.thisN,trialsTwo.thisIndex,WelcomeScreenText.started,WelcomeInstructions.started,WelcomeScreenText.stopped,keyWelcome.started,keyWelcome.keys,keyWelcome.rt,text.started,eegtime,n_back_one.started,Key_one.started,n_back_one.stopped,Key_one.keys,Key_one.corr,ISI.started,Key_one.stopped,Key_one.rt,ISI.stopped,Intro_Block_two.started,Start_Block_One.started,Start_Block_One.keys,Start_Block_One.rt,Block_2_stimulus.started,key_Two.started,Block_2_stimulus.stopped,key_Two.keys,key_Two.corr,key_Two.stopped,key_Two.rt,GoodBye.started,participant,session,date,expName,psychopyVersion,frameRate,
,,,,,,,,,,,,13.801953099999082,15.798196699999608,15.811636500000532,16.800038499999573,z,1.6446813000002294,,,,,,,,,,,,,,,,,,,,,,,,352372,001,2024-05-14_18h09.55.027,nBack,2022.2.5,74.9649913480976,
V,None,None,,0,0,0,0,,,,,,,,,,,18.46787679999943,13.101552724838257,19.024775699999736,19.06664400000045,19.33509520000007,None,1,20.174073399999543,,,,,,,,,,,,,,,,352372,001,2024-05-14_18h09.55.027,nBack,2022.2.5,74.9649913480976,
X,N,None,,0,1,1,1,,,,,,,,,,,,15.796537399291992,21.668825000000652,21.76277200000004,21.97599799999989,None,1,22.869825100000526,,,,,,,,,,,,,,,,352372,001,2024-05-14_18h09.55.027,nBack,2022.2.5,74.9649913480976,
A,N,None,,0,2,2,2,,,,,,,,,,,,18.49911379814148,24.37601419999919,24.456230800000412,24.68275840000024,None,1,25.56418549999944,25.56418549999944,,,,,,,,,,,,,,,352372,001,2024-05-14_18h09.55.027,nBack,2022.2.5,74.9649913480976,
A,Y,z,,0,3,3,3,,,,,,,,,,,,20.611647844314575,27.071188699999766,27.164535599999,27.378039699999135,z,1,27.671238499999163,,0.4887144999993325,,,,,,,,,,,,,,352372,001,2024-05-14_18h09.55.027,nBack,2022.2.5,74.9649913480976,
X,N,None,,0,4,4,4,,,,,,,,,,,,23.299166679382324,29.17837259999942,29.272048000000723,29.485494200000176,None,1,30.379143199999817,,,,,,,,,,,,,,,,352372,001,2024-05-14_18h09.55.027,nBack,2022.2.5,74.9649913480976,
B,N,None,,0,5,5,5,,,,,,,,,,,,26.002978563308716,31.88391649999903,31.965592200000174,32.191966200000024,None,1,33.07259300000078,33.07259300000078,,,,,,,,,,,,,,,352372,001,2024-05-14_18h09.55.027,nBack,2022.2.5,74.9649913480976,
B,Y,z,,0,6,6,6,,,,,,,,,,,,27.973650217056274,34.58055769999919,34.660632299999634,34.887583699999595,z,1,35.03396909999901,,0.3522469999988971,,,,,,,,,,,,,,352372,001,2024-05-14_18h09.55.027,nBack,2022.2.5,74.9649913480976,
X,N,None,,0,7,7,7,,,,,,,,,,,,30.668104887008667,36.540473299999576,36.63370589999977,36.84728709999945,None,1,37.74200550000023,,,,,,,,,,,,,,,,352372,001,2024-05-14_18h09.55.027,nBack,2022.2.5,74.9649913480976,
Y,N,None,,0,8,8,8,,,,,,,,,,,,33.37565016746521,39.248829000000114,39.32901270000002,39.555869699999676,None,1,40.43505929999992,40.43505929999992,,,,,,,,,,,,,,,352372,001,2024-05-14_18h09.55.027,nBack,2022.2.5,74.9649913480976,
Y,Y,z,,0,9,9,9,,,,,,,,,,,,35.29254961013794,41.943350100000316,42.023359200000414,42.250123600000734,z,1,42.35697049999908,,0.31722660000014,,,,,,,,,,,,,,352372,001,2024-05-14_18h09.55.027,nBack,2022.2.5,74.9649913480976,
B,N,None,,0,10,10,10,,,,,,,,,,,,37.97580075263977,43.86210100000062,43.956295500000124,44.16990860000078,None,1,45.06370109999989,,,,,,,,,,,,,,,,352372,001,2024-05-14_18h09.55.027,nBack,2022.2.5,74.9649913480976,
Y,N,None,,0,11,11,11,,,,,,,,,,,,40.6807656288147,46.55812650000007,46.65172700000039,46.86530230000062,None,1,47.75882559999991,,,,,,,,,,,,,,,,352372,001,2024-05-14_18h09.55.027,nBack,2022.2.5,74.9649913480976,
V,N,None,,0,12,12,12,,,,,,,,,,,,42.538283586502075,49.26577290000023,49.346002399999634,49.57274349999898,z,0,49.599568999999974,,0.2381414000010409,,,,,,,,,,,,,,352372,001,2024-05-14_18h09.55.027,nBack,2022.2.5,74.9649913480976,
C,N,None,,0,13,13,13,,,,,,,,,,,,45.23086500167847,51.10655709999992,51.200034499999674,51.4135796999999,None,1,52.3057874999995,,,,,,,,,,,,,,,,352372,001,2024-05-14_18h09.55.027,nBack,2022.2.5,74.9649913480976,
C,Y,z,,0,14,14,14,,,,,,,,,,,,47.207741498947144,53.80094950000057,53.89447780000046,54.10779840000032,z,1,54.26773549999962,,0.3537696999992477,,,,,,,,,,,,,,352372,001,2024-05-14_18h09.55.027,nBack,2022.2.5,74.9649913480976,
V,N,None,,0,15,15,15,,,,,,,,,,,,49.894816398620605,55.77272219999941,55.86741040000015,56.08095390000017,None,1,56.9754783999997,,,,,,,,,,,,,,,,352372,001,2024-05-14_18h09.55.027,nBack,2022.2.5,74.9649913480976,
X,N,None,,0,16,16,16,,,,,,,,,,,,52.60913300514221,58.48244589999922,58.56287030000021,58.78966819999914,None,1,59.669760900000256,59.669760900000256,,,,,,,,,,,,,,,352372,001,2024-05-14_18h09.55.027,nBack,2022.2.5,74.9649913480976,
Y,N,None,,0,17,17,17,,,,,,,,,,,,55.30231475830078,61.175753199999235,61.25603760000013,61.48309700000027,None,1,62.36406159999933,62.36406159999933,,,,,,,,,,,,,,,352372,001,2024-05-14_18h09.55.027,nBack,2022.2.5,74.9649913480976,
C,N,None,,0,18,18,18,,,,,,,,,,,,57.99610090255737,63.87011299999904,63.96378589999949,64.1771977999997,None,1,65.07184629999938,,,,,,,,,,,,,,,,352372,001,2024-05-14_18h09.55.027,nBack,2022.2.5,74.9649913480976,
C,Y,z,,0,19,19,19,,,,,,,,,,,,59.87547159194946,66.57899619999989,66.65908940000008,66.88597110000046,z,1,66.93909829999939,,0.2572505000007368,,,,,,,,,,,,,,352372,001,2024-05-14_18h09.55.027,nBack,2022.2.5,74.9649913480976,
A,N,None,,0,20,20,20,,,,,,,,,,,,62.57245707511902,68.44507700000031,68.53868560000046,68.75237469999956,None,1,69.64691160000075,,,,,,,,,,,,,,,,352372,001,2024-05-14_18h09.55.027,nBack,2022.2.5,74.9649913480976,
W,N,None,,0,21,21,21,,,,,,,,,,,,65.28123140335083,71.15384679999988,71.23403739999958,71.46087979999902,None,1,72.3400416000004,72.3400416000004,,,,,,,,,,,,,,,352372,001,2024-05-14_18h09.55.027,nBack,2022.2.5,74.9649913480976,
X,N,None,,0,22,22,22,,,,,,,,,,,,67.97568464279175,73.84815549999985,73.92842589999964,74.1553430999993,None,1,75.03546710000046,75.03546710000046,,,,,,,,,,,,,,,352372,001,2024-05-14_18h09.55.027,nBack,2022.2.5,74.9649913480976,
X,Y,z,,0,23,23,23,,,,,,,,,,,,70.66129779815674,76.54171270000006,76.63510219999989,76.84886860000006,None,0,77.74322679999932,,,,,,,,,,,,,,,,352372,001,2024-05-14_18h09.55.027,nBack,2022.2.5,74.9649913480976,
A,N,None,,0,24,24,24,,,,,,,,,,,,73.37587785720825,79.25018119999913,79.33040769999934,79.55725250000069,None,1,80.43640210000012,80.43640210000012,,,,,,,,,,,,,,,352372,001,2024-05-14_18h09.55.027,nBack,2022.2.5,74.9649913480976,
X,N,None,,0,25,25,25,,,,,,,,,,,,76.07268285751343,81.94438470000023,82.03813869999976,82.25148400000035,None,1,83.14535000000069,,,,,,,,,,,,,,,,352372,001,2024-05-14_18h09.55.027,nBack,2022.2.5,74.9649913480976,
X,Y,z,,0,26,26,26,,,,,,,,,,,,78.14834785461426,84.65121440000075,84.73152169999958,84.95929629999955,z,1,85.21253129999968,,0.45680519999950775,,,,,,,,,,,,,,352372,001,2024-05-14_18h09.55.027,nBack,2022.2.5,74.9649913480976,
C,N,None,,0,27,27,27,,,,,,,,,,,,80.83651638031006,86.71949829999903,86.81316719999995,87.026717499999,None,1,87.91920559999926,,,,,,,,,,,,,,,,352372,001,2024-05-14_18h09.55.027,nBack,2022.2.5,74.9649913480976,
V,N,None,,0,28,28,28,,,,,,,,,,,,83.5403311252594,89.42717529999936,89.50742680000076,89.73424069999965,None,1,90.61483849999968,,,,,,,,,,,,,,,,352372,001,2024-05-14_18h09.55.027,nBack,2022.2.5,74.9649913480976,
Y,N,None,,0,29,29,29,,,,,,,,,,,,86.24795031547546,92.12057719999939,92.20091820000016,92.42770129999917,None,1,93.30879509999977,93.30879509999977,,,,,,,,,,,,,,,352372,001,2024-05-14_18h09.55.027,nBack,2022.2.5,74.9649913480976,
X,N,None,,0,30,30,30,,,,,,,,,,,,88.93421339988708,94.81583329999921,94.90939199999957,95.12299530000018,None,1,96.0154779000004,,,,,,,,,,,,,,,,352372,001,2024-05-14_18h09.55.027,nBack,2022.2.5,74.9649913480976,
B,N,None,,0,31,31,31,,,,,,,,,,,,91.6479663848877,97.5237247999994,97.60375910000039,97.83051519999935,None,1,98.71077109999896,98.71077109999896,,,,,,,,,,,,,,,352372,001,2024-05-14_18h09.55.027,nBack,2022.2.5,74.9649913480976,
W,N,None,,0,32,32,32,,,,,,,,,,,,94.34426093101501,100.21682259999943,100.31039509999937,100.52392429999963,None,1,101.41853609999998,,,,,,,,,,,,,,,,352372,001,2024-05-14_18h09.55.027,nBack,2022.2.5,74.9649913480976,
B,N,None,,0,33,33,33,,,,,,,,,,,,97.05185222625732,102.92542219999996,103.00581330000023,103.23249829999986,None,1,104.11172049999914,104.11172049999914,,,,,,,,,,,,,,,352372,001,2024-05-14_18h09.55.027,nBack,2022.2.5,74.9649913480976,
B,Y,z,,0,34,34,34,,,,,,,,,,,,99.06689596176147,105.61999789999936,105.71345990000009,105.92702099999951,z,1,106.12684319999971,,0.39528640000025916,,,,,,,,,,,,,,352372,001,2024-05-14_18h09.55.027,nBack,2022.2.5,74.9649913480976,
W,N,None,,0,35,35,35,,,,,,,,,,,,101.76130104064941,107.63388639999903,107.72749830000066,107.94023650000054,None,1,108.83350969999992,,,,,,,,,,,,,,,,352372,001,2024-05-14_18h09.55.027,nBack,2022.2.5,74.9649913480976,
W,Y,z,,0,36,36,36,,,,,,,,,,,,103.7094030380249,110.34170119999908,110.42177609999999,110.64853799999946,z,1,110.76847629999975,,0.3266206999996939,,,,,,,,,,,,,,352372,001,2024-05-14_18h09.55.027,nBack,2022.2.5,74.9649913480976,
W,Y,z,,0,37,37,37,,,,,,,,,,,,105.8282618522644,112.27480149999974,112.3682432000005,112.58169760000055,z,1,112.88827639999909,,0.49644919999809645,,,,,,,,,,,,,,352372,001,2024-05-14_18h09.55.027,nBack,2022.2.5,74.9649913480976,
C,N,None,,0,38,38,38,,,,,,,,,,,,108.51263356208801,114.39629640000021,114.47662239999954,114.70334430000003,None,1,115.58360670000002,115.58360670000002,,,,,,,,,,,,,,,352372,001,2024-05-14_18h09.55.027,nBack,2022.2.5,74.9649913480976,
Y,N,None,,0,39,39,39,,,,,,,,,,,,111.2101902961731,117.09059829999933,117.18431620000047,117.39784820000023,None,1,118.29158629999984,,,,,,,,,,,,,,,,352372,001,2024-05-14_18h09.55.027,nBack,2022.2.5,74.9649913480976,
A,N,None,,0,40,40,40,,,,,,,,,,,,113.9246187210083,119.79827139999907,119.87657149999905,120.10457169999972,None,1,120.98454449999917,120.98454449999917,,,,,,,,,,,,,,,352372,001,2024-05-14_18h09.55.027,nBack,2022.2.5,74.9649913480976,
A,Y,z,,0,41,41,41,,,,,,,,,,,,115.96470236778259,122.49290830000064,122.58616009999969,122.79973120000068,z,1,123.02627890000076,,0.4156199999997625,,,,,,,,,,,,,,352372,001,2024-05-14_18h09.55.027,nBack,2022.2.5,74.9649913480976,
Y,N,None,,0,42,42,42,,,,,,,,,,,,118.66038227081299,124.53280889999951,124.62609689999954,124.83949989999928,None,1,125.73404329999903,,,,,,,,,,,,,,,,352372,001,2024-05-14_18h09.55.027,nBack,2022.2.5,74.9649913480976,
W,N,None,,0,43,43,43,,,,,,,,,,,,121.36398696899414,127.24100419999922,127.32130490000054,127.54813130000002,None,1,128.4273933000004,128.4273933000004,,,,,,,,,,,,,,,352372,001,2024-05-14_18h09.55.027,nBack,2022.2.5,74.9649913480976,
B,N,None,,0,44,44,44,,,,,,,,,,,,124.06362748146057,129.93522630000007,130.01581400000032,130.2423357000007,None,1,131.12270050000006,131.12270050000006,,,,,,,,,,,,,,,352372,001,2024-05-14_18h09.55.027,nBack,2022.2.5,74.9649913480976,
Y,N,None,,0,45,45,45,,,,,,,,,,,,126.75612139701843,132.6289154999995,132.72227629999907,132.93592419999914,None,1,133.83035430000018,,,,,,,,,,,,,,,,352372,001,2024-05-14_18h09.55.027,nBack,2022.2.5,74.9649913480976,
C,N,None,,0,46,46,46,,,,,,,,,,,,129.46431946754456,135.33746659999997,135.41762279999966,135.6444589999992,None,1,136.52366380000058,136.52366380000058,,,,,,,,,,,,,,,352372,001,2024-05-14_18h09.55.027,nBack,2022.2.5,74.9649913480976,
C,Y,z,,0,47,47,47,,,,,,,,,,,,131.31750869750977,138.0318274000001,138.12551859999985,138.33872879999944,z,1,138.37858880000022,,0.23939969999992172,,,,,,,,,,,,,,352372,001,2024-05-14_18h09.55.027,nBack,2022.2.5,74.9649913480976,
V,N,None,,0,48,48,48,,,,,,,,,,,,134.0131573677063,139.8857265000006,139.97692370000004,140.19179930000064,None,1,141.08543129999998,,,,,,,,,,,,,,,,352372,001,2024-05-14_18h09.55.027,nBack,2022.2.5,74.9649913480976,
B,N,None,,0,49,49,49,,,,,,,,,,,,136.70759272575378,142.5933253000003,142.67364420000013,142.90054659999987,None,1,143.78071079999972,,,,,,,,,,,,,,,,352372,001,2024-05-14_18h09.55.027,nBack,2022.2.5,74.9649913480976,
X,N,None,,0,50,50,50,,,,,,,,,,,,139.41388702392578,145.28678129999935,145.36692159999984,145.59377379999933,None,1,146.47528579999926,146.47528579999926,,147.98030330000074,,,,,,,,,,,,,352372,001,2024-05-14_18h09.55.027,nBack,2022.2.5,74.9649913480976,
X,Y,z,,0,51,51,51,,,,,,,,,,,,142.1064167022705,147.98030330000074,148.07570710000073,148.28814760000023,None,0,149.1817718000002,,,,,,,,,,,,,,,,352372,001,2024-05-14_18h09.55.027,nBack,2022.2.5,74.9649913480976,
V,N,None,,0,52,52,52,,,,,,,,,,,,144.81151580810547,150.68970380000064,150.7699649999995,150.99678060000042,None,1,151.87696200000028,151.87696200000028,,,,,,,,,,,,,,,352372,001,2024-05-14_18h09.55.027,nBack,2022.2.5,74.9649913480976,
Y,N,None,,0,53,53,53,,,,,,,,,,,,146.67900919914246,153.38389819999975,153.47768619999988,153.69097390000024,z,0,153.74416670000028,,0.24335939999946277,,,,,,,,,,,,,,352372,001,2024-05-14_18h09.55.027,nBack,2022.2.5,74.9649913480976,
B,N,None,,0,54,54,54,,,,,,,,,,,,149.37521982192993,155.2513342000002,155.344951699999,155.55842269999994,None,1,156.45072909999908,,,,,,,,,,,,,,,,352372,001,2024-05-14_18h09.55.027,nBack,2022.2.5,74.9649913480976,
B,Y,z,,0,55,55,55,,,,,,,,,,,,151.36287236213684,157.95880889999898,158.03880349999963,158.2657610999995,z,1,158.42569139999978,,0.3695463000003656,,,,,,,,,,,,,,352372,001,2024-05-14_18h09.55.027,nBack,2022.2.5,74.9649913480976,
B,Y,z,,0,56,56,56,,,,,,,,,,,,153.55914664268494,159.93330609999975,160.01332019999973,160.23926070000016,z,1,160.63912449999953,,0.6122434999997495,,,,,,,,,,,,,,352372,001,2024-05-14_18h09.55.027,nBack,2022.2.5,74.9649913480976,
A,N,None,,0,57,57,57,,,,,,,,,,,,156.27422904968262,162.14589019999949,162.23963580000054,162.45314289999988,None,1,163.348140099999,,,,,,,,,,,,,,,,352372,001,2024-05-14_18h09.55.027,nBack,2022.2.5,74.9649913480976,
X,N,None,,0,58,58,58,,,,,,,,,,,,158.96924138069153,164.85390910000024,164.9342340000003,165.161942499999,None,1,166.04212820000066,,,,,,,,,,,,,,,,352372,001,2024-05-14_18h09.55.027,nBack,2022.2.5,74.9649913480976,
C,N,None,,0,59,59,59,,,,,,,,,,,,161.67431712150574,167.54919399999926,167.62944199999947,167.85625079999954,None,1,168.7358480999992,168.7358480999992,,,,,,,,,,,,,,,352372,001,2024-05-14_18h09.55.027,nBack,2022.2.5,74.9649913480976,
X,N,None,,0,60,60,60,,,,,,,,,,,,164.37123155593872,170.24344419999943,170.3372999000003,170.55057230000057,None,1,171.44416979999914,,,,,,,,,,,,,,,,352372,001,2024-05-14_18h09.55.027,nBack,2022.2.5,74.9649913480976,
V,N,None,,0,61,61,61,,,,,,,,,,,,167.07690906524658,172.95025969999915,173.03049959999953,173.25779779999903,None,1,174.13835950000066,174.13835950000066,,,,,,,,,,,,,,,352372,001,2024-05-14_18h09.55.027,nBack,2022.2.5,74.9649913480976,
V,Y,z,,0,62,62,62,,,,,,,,,,,,169.1869204044342,175.64560170000004,175.73910719999913,175.95261819999905,z,1,176.25811090000025,,0.49436659999992116,,,,,,,,,,,,,,352372,001,2024-05-14_18h09.55.027,nBack,2022.2.5,74.9649913480976,
A,N,None,,0,63,63,63,,,,,,,,,,,,171.8882179260254,177.76622839999982,177.84656990000076,178.07329539999955,None,1,178.95358449999912,178.95358449999912,,180.46005100000002,,,,,,,,,,,,,352372,001,2024-05-14_18h09.55.027,nBack,2022.2.5,74.9649913480976,
Y,N,None,,0,64,64,64,,,,,,,,,,,,174.58831310272217,180.46005100000002,180.55319830000008,180.7668197999992,None,1,181.66132610000022,,,,,,,,,,,,,,,,352372,001,2024-05-14_18h09.55.027,nBack,2022.2.5,74.9649913480976,
Y,Y,z,,0,65,65,65,,,,,,,,,,,,177.2946162223816,183.1683720000001,183.24852049999936,183.47537069999998,None,0,184.35449859999972,184.35449859999972,,,,,,,,,,,,,,,352372,001,2024-05-14_18h09.55.027,nBack,2022.2.5,74.9649913480976,
B,N,None,,0,66,66,66,,,,,,,,,,,,179.9896731376648,185.86252830000012,185.95635690000017,186.16969439999957,None,1,187.06323730000076,,,,,,,,,,,,,,,,352372,001,2024-05-14_18h09.55.027,nBack,2022.2.5,74.9649913480976,
V,N,None,,0,67,67,67,,,,,,,,,,,,182.69719791412354,188.569168,188.64970940000057,188.87630519999948,None,1,189.75749759999962,189.75749759999962,,,,,,,,,,,,,,,352372,001,2024-05-14_18h09.55.027,nBack,2022.2.5,74.9649913480976,
V,Y,z,,0,68,68,68,,,,,,,,,,,,184.73594665527344,191.26471990000027,191.35820980000062,191.57167630000004,z,1,191.7981476999994,,0.4185753999990993,,,,,,,,,,,,,,352372,001,2024-05-14_18h09.55.027,nBack,2022.2.5,74.9649913480976,
A,N,None,,0,69,69,69,,,,,,,,,,,,187.42355751991272,193.30455359999905,193.39894619999905,193.61241549999977,None,1,194.50591600000007,,,,,,,,,,,,,,,,352372,001,2024-05-14_18h09.55.027,nBack,2022.2.5,74.9649913480976,
W,N,None,,0,70,70,70,,,,,,,,,,,,190.13730192184448,196.01300450000053,196.0931500000006,196.31921209999928,None,1,197.19977970000036,197.19977970000036,,,,,,,,,,,,,,,352372,001,2024-05-14_18h09.55.027,nBack,2022.2.5,74.9649913480976,
W,Y,z,,0,71,71,71,,,,,,,,,,,,192.0849220752716,198.70753309999964,198.78756199999953,199.01428769999984,z,1,199.14752319999934,,0.34560550000060175,,,,,,,,,,,,,,352372,001,2024-05-14_18h09.55.027,nBack,2022.2.5,74.9649913480976,
Y,N,None,,0,72,72,72,,,,,,,,,,,,194.77617073059082,200.6535946999993,200.74728049999976,200.96074009999938,None,1,201.8552854999998,,,,,,,,,,,,,,,,352372,001,2024-05-14_18h09.55.027,nBack,2022.2.5,74.9649913480976,
B,N,None,,0,73,73,73,,,,,,,,,,,,197.4843873977661,203.362264899999,203.4426454000004,203.66938429999936,None,1,204.54870839999967,204.54870839999967,,,,,,,,,,,,,,,352372,001,2024-05-14_18h09.55.027,nBack,2022.2.5,74.9649913480976,
C,N,None,,0,74,74,74,,,,,,,,,,,,200.18505668640137,206.0555435999995,206.13585559999956,206.3637075000006,None,1,207.24390119999953,207.24390119999953,,,,,,,,,,,,,,,352372,001,2024-05-14_18h09.55.027,nBack,2022.2.5,74.9649913480976,
C,Y,z,,0,75,75,75,,,,,,,,,,,,202.1650447845459,208.75008549999984,208.84379799999988,209.0570418999996,z,1,209.23018170000068,,0.36471419999907084,,,,,,,,,,,,,,352372,001,2024-05-14_18h09.55.027,nBack,2022.2.5,74.9649913480976,
Y,N,None,,0,76,76,76,,,,,,,,,,,,204.865131855011,210.73837339999955,210.81853620000038,211.04537320000054,None,1,211.92587420000018,211.92587420000018,,,,,,,,,,,,,,,352372,001,2024-05-14_18h09.55.027,nBack,2022.2.5,74.9649913480976,
X,N,None,,0,77,77,77,,,,,,,,,,,,207.56015396118164,213.43273959999897,213.52632020000055,213.73968690000038,None,1,214.63329879999947,,,,,,,,,,,,,,,,352372,001,2024-05-14_18h09.55.027,nBack,2022.2.5,74.9649913480976,
X,Y,z,,0,78,78,78,,,,,,,,,,,,209.6414406299591,216.14063669999996,216.22057320000022,216.4466278,z,1,216.71292929999981,,0.46800859999893873,,,,,,,,,,,,,,352372,001,2024-05-14_18h09.55.027,nBack,2022.2.5,74.9649913480976,
C,N,None,,0,79,79,79,,,,,,,,,,,,212.34838032722473,218.22114689999944,218.30133269999897,218.52818900000057,None,1,219.40836710000076,219.40836710000076,,220.9144455000005,,,,,,,,,,,,,352372,001,2024-05-14_18h09.55.027,nBack,2022.2.5,74.9649913480976,
W,N,None,,0,80,80,80,,,,,,,,,,,,215.04283332824707,220.9144455000005,221.00814919999902,221.22148279999965,None,1,222.11606810000012,,,,,,,,,,,,,,,,352372,001,2024-05-14_18h09.55.027,nBack,2022.2.5,74.9649913480976,
W,Y,z,,0,81,81,81,,,,,,,,,,,,217.01533699035645,223.62322809999932,223.70328960000006,223.9301789000001,z,1,224.07660939999914,,0.35429370000019844,,,,,,,,,,,,,,352372,001,2024-05-14_18h09.55.027,nBack,2022.2.5,74.9649913480976,
W,Y,z,,0,82,82,82,,,,,,,,,,,,219.7078619003296,225.58402410000053,225.67740889999914,225.89088260000062,None,0,226.7845569000001,,,,,,,,,,,,,,,,352372,001,2024-05-14_18h09.55.027,nBack,2022.2.5,74.9649913480976,
C,N,None,,0,83,83,83,,,,,,,,,,,,222.41797184944153,228.29144749999978,228.3717233999996,228.59750879999956,None,1,229.4778241999993,229.4778241999993,,,,,,,,,,,,,,,352372,001,2024-05-14_18h09.55.027,nBack,2022.2.5,74.9649913480976,
Y,N,None,,0,84,84,84,,,,,,,,,,,,225.10798716545105,230.98578389999966,231.06620509999993,231.2928355999993,None,1,232.17302390000077,232.17302390000077,,,,,,,,,,,,,,,352372,001,2024-05-14_18h09.55.027,nBack,2022.2.5,74.9649913480976,
C,N,None,,0,85,85,85,,,,,,,,,,,,227.02304577827454,233.68010270000013,233.7737051999993,233.98711469999944,z,0,234.0935673999993,,0.3039718999989418,,,,,,,,,,,,,,352372,001,2024-05-14_18h09.55.027,nBack,2022.2.5,74.9649913480976,
X,N,None,,0,86,86,86,,,,,,,,,,,,229.72811794281006,235.60082370000055,235.6943463000007,235.90799940000034,None,1,236.8005331000004,,,,,,,,,,,,,,,,352372,001,2024-05-14_18h09.55.027,nBack,2022.2.5,74.9649913480976,
B,N,None,,0,87,87,87,,,,,,,,,,,,232.42065501213074,238.30853279999974,238.3887047999997,238.6155818999996,None,1,239.49576370000068,,,,,,,,,,,,,,,,352372,001,2024-05-14_18h09.55.027,nBack,2022.2.5,74.9649913480976,
B,Y,z,,0,88,88,88,,,,,,,,,,,,234.44317436218262,241.00198509999973,241.08188700000028,241.30886269999974,z,1,241.50918490000004,,0.4139839999988908,,,,,,,,,,,,,,352372,001,2024-05-14_18h09.55.027,nBack,2022.2.5,74.9649913480976,
A,N,None,,0,89,89,89,,,,,,,,,,,,237.1439290046692,243.01692340000045,243.0969301999994,243.32393050000064,None,1,244.2041420000005,244.2041420000005,,,,,,,,,,,,,,,352372,001,2024-05-14_18h09.55.027,nBack,2022.2.5,74.9649913480976,
B,N,None,,0,90,90,90,,,,,,,,,,,,239.83329582214355,245.71119559999897,245.80473109999912,246.0182074000004,None,1,246.9120968999996,,,,,,,,,,,,,,,,352372,001,2024-05-14_18h09.55.027,nBack,2022.2.5,74.9649913480976,
V,N,None,,0,91,91,91,,,,,,,,,,,,242.5283043384552,248.42321959999936,248.51037279999946,248.72483619999912,None,1,249.6185086000005,,,,,,,,,,,,,,,,352372,001,2024-05-14_18h09.55.027,nBack,2022.2.5,74.9649913480976,
V,Y,z,,0,92,92,92,,,,,,,,,,,,245.23397636413574,251.1132448999997,251.2067217999993,251.4203581999991,None,0,252.31380750000062,,,,,,,,,,,,,,,,352372,001,2024-05-14_18h09.55.027,nBack,2022.2.5,74.9649913480976,
B,N,None,,0,93,93,93,,,,,,,,,,,,247.94590711593628,253.8211449999999,253.90111289999913,254.12790160000077,None,1,255.00817379999899,255.00817379999899,,,,,,,,,,,,,,,352372,001,2024-05-14_18h09.55.027,nBack,2022.2.5,74.9649913480976,
W,N,None,,0,94,94,94,,,,,,,,,,,,250.63598728179932,256.5136062999991,256.60781490000045,256.821218699999,None,1,257.7161756000005,,,,,,,,,,,,,,,,352372,001,2024-05-14_18h09.55.027,nBack,2022.2.5,74.9649913480976,
B,N,None,,0,95,95,95,,,,,,,,,,,,253.3492603302002,259.2227791999994,259.30308030000015,259.5298669999993,None,1,260.41013120000025,260.41013120000025,,,,,,,,,,,,,,,352372,001,2024-05-14_18h09.55.027,nBack,2022.2.5,74.9649913480976,
B,Y,z,,0,96,96,96,,,,,,,,,,,,255.37856078147888,261.91729080000005,261.9973539999992,262.2242217999992,z,1,262.43740289999914,,0.4186539000002085,,,,,,,,,,,,,,352372,001,2024-05-14_18h09.55.027,nBack,2022.2.5,74.9649913480976,
Y,N,None,,0,97,97,97,,,,,,,,,,,,258.06859946250916,263.94454269999915,264.03811959999985,264.25161429999935,None,1,265.14427219999925,,,,,,,,,,,,,,,,352372,001,2024-05-14_18h09.55.027,nBack,2022.2.5,74.9649913480976,
B,N,None,,0,98,98,98,,,,,,,,,,,,260.7630352973938,266.65219269999943,266.7325325999991,266.9592460999993,None,1,267.839577499999,,,,,,,,,,,,,,,,352372,001,2024-05-14_18h09.55.027,nBack,2022.2.5,74.9649913480976,
B,Y,z,,0,99,99,99,,,,,,,,,,,,262.7923755645752,269.34569960000044,269.4258224999994,269.6528994,z,1,269.8535283000001,,0.41098979999878793,,,,,,,,,,,,,,352372,001,2024-05-14_18h09.55.027,nBack,2022.2.5,74.9649913480976,
W,N,None,,0,100,100,100,,,,,,,,,,,,265.47880506515503,271.36052589999963,271.4408968000007,271.6676803999999,None,1,272.5458937000003,272.5458937000003,,274.0538041,,,,,,,,,,,,,352372,001,2024-05-14_18h09.55.027,nBack,2022.2.5,74.9649913480976,
V,N,None,,0,101,101,101,,,,,,,,,,,,268.1825637817383,274.0538041,274.14759520000007,274.36104519999935,None,1,275.2556041000007,,,,,,,,,,,,,,,,352372,001,2024-05-14_18h09.55.027,nBack,2022.2.5,74.9649913480976,
A,N,None,,0,102,102,102,,,,,,,,,,,,270.88260316848755,276.76164099999914,276.8418693000003,277.0686377000002,None,1,277.94984640000075,277.94984640000075,,,,,,,,,,,,,,,352372,001,2024-05-14_18h09.55.027,nBack,2022.2.5,74.9649913480976,
A,Y,z,,0,103,103,103,,,,,,,,,,,,272.8238961696625,279.457271199999,279.5504949999995,279.7640431,z,1,279.8838008999992,,0.3147800999995525,,,,,,,,,,,,,,352372,001,2024-05-14_18h09.55.027,nBack,2022.2.5,74.9649913480976,
X,N,None,,0,104,104,104,,,,,,,,,,,,275.5190227031708,281.3899574999996,281.48388739999973,281.6980545999995,None,1,282.5915951999996,,,,,,,,,,,,,,,,352372,001,2024-05-14_18h09.55.027,nBack,2022.2.5,74.9649913480976,
V,N,None,,0,105,105,105,,,,,,,,,,,,278.21590280532837,284.09854429999905,284.17881169999964,284.40562769999997,None,1,285.2849267999991,285.2849267999991,,,,,,,,,,,,,,,352372,001,2024-05-14_18h09.55.027,nBack,2022.2.5,74.9649913480976,
Y,N,None,,0,106,106,106,,,,,,,,,,,,280.91653180122375,286.79287850000037,286.87315579999995,287.10000430000036,None,1,287.9801845000002,287.9801845000002,,,,,,,,,,,,,,,352372,001,2024-05-14_18h09.55.027,nBack,2022.2.5,74.9649913480976,
Y,Y,z,,0,107,107,107,,,,,,,,,,,,283.22848773002625,289.48640669999986,289.5800543999994,289.7943658000004,z,1,290.2876433000001,,0.6891101000001072,,,,,,,,,,,,,,352372,001,2024-05-14_18h09.55.027,nBack,2022.2.5,74.9649913480976,
V,N,None,,0,108,108,108,,,,,,,,,,,,285.9122347831726,291.7947179999992,291.8883507999999,292.1018648999998,None,1,292.9944579999992,,,,,,,,,,,,,,,,352372,001,2024-05-14_18h09.55.027,nBack,2022.2.5,74.9649913480976,
C,N,None,,0,109,109,109,,,,,,,,,,,,288.6167573928833,294.5024931000007,294.5827042000001,294.8094956999994,None,1,295.6897590999997,,,,,,,,,,,,,,,,352372,001,2024-05-14_18h09.55.027,nBack,2022.2.5,74.9649913480976,
W,N,None,,0,110,110,110,,,,,,,,,,,,291.31797766685486,297.19572229999903,297.27604339999925,297.5028320000001,None,1,298.3840880000007,298.3840880000007,,,,,,,,,,,,,,,352372,001,2024-05-14_18h09.55.027,nBack,2022.2.5,74.9649913480976,
X,N,None,,0,111,111,111,,,,,,,,,,,,294.0168647766113,299.8911487000005,299.9846899999993,300.19808700000067,None,1,301.0907750000006,,,,,,,,,,,,,,,,352372,001,2024-05-14_18h09.55.027,nBack,2022.2.5,74.9649913480976,
X,Y,z,,0,112,112,112,,,,,,,,,,,,296.19185304641724,302.59891289999905,302.6789695000007,302.90577160000066,z,1,303.25240759999906,,0.5571204999996553,,,,,,,,,,,,,,352372,001,2024-05-14_18h09.55.027,nBack,2022.2.5,74.9649913480976,
Y,N,None,,0,113,113,113,,,,,,,,,,,,298.88751459121704,304.7584315999993,304.852061399999,305.06560849999914,None,1,305.9600415999994,,,,,,,,,,,,,,,,352372,001,2024-05-14_18h09.55.027,nBack,2022.2.5,74.9649913480976,
X,N,None,,0,114,114,114,,,,,,,,,,,,301.5906779766083,307.46725829999923,307.5475494000002,307.77425519999997,None,1,308.6538375,308.6538375,,,,,,,,,,,,,,,352372,001,2024-05-14_18h09.55.027,nBack,2022.2.5,74.9649913480976,
W,N,None,,0,115,115,115,,,,,,,,,,,,304.28391671180725,310.1615237999995,310.24183040000025,310.46856750000006,None,1,311.34871439999915,311.34871439999915,,,,,,,,,,,,,,,352372,001,2024-05-14_18h09.55.027,nBack,2022.2.5,74.9649913480976,
X,N,None,,0,116,116,116,,,,,,,,,,,,306.97952485084534,312.8547944000002,312.94833990000006,313.1619140999992,None,1,314.05650629999946,,,,,,,,,,,,,,,,352372,001,2024-05-14_18h09.55.027,nBack,2022.2.5,74.9649913480976,
A,N,None,,0,117,117,117,,,,,,,,,,,,309.68957114219666,315.5636923000002,315.6437514999998,315.8705522,None,1,316.74986530000024,316.74986530000024,,,,,,,,,,,,,,,352372,001,2024-05-14_18h09.55.027,nBack,2022.2.5,74.9649913480976,
B,N,None,,0,118,118,118,,,,,,,,,,,,312.38213872909546,318.2578572000002,318.35136819999934,318.56493690000025,None,1,319.45842749999974,,,,,,,,,,,,,,,,352372,001,2024-05-14_18h09.55.027,nBack,2022.2.5,74.9649913480976,
B,Y,z,,0,119,119,119,,,,,,,,,,,,314.32904076576233,320.96461909999925,321.044759299999,321.2715552999998,z,1,321.3913904000001,,0.3279490999993868,,,,,,,,,,,,,,352372,001,2024-05-14_18h09.55.027,nBack,2022.2.5,74.9649913480976,
W,N,None,,0,120,120,120,,,,,,,,,,,,317.0222246646881,322.8995761999995,322.97974409999915,323.20661259999906,None,1,324.08670820000043,324.08670820000043,,325.59386749999976,,,,,,,,,,,,,352372,001,2024-05-14_18h09.55.027,nBack,2022.2.5,74.9649913480976,
X,N,None,,0,121,121,121,,,,,,,,,,,,319.71851897239685,325.59386749999976,325.68748980000055,325.9010027000004,None,1,326.79442729999937,,,,,,,,,,,,,,,,352372,001,2024-05-14_18h09.55.027,nBack,2022.2.5,74.9649913480976,
Y,N,None,,0,122,122,122,,,,,,,,,,,,322.42604541778564,328.30146649999915,328.3817435000001,328.6076658999991,None,1,329.48815569999897,329.48815569999897,,,,,,,,,,,,,,,352372,001,2024-05-14_18h09.55.027,nBack,2022.2.5,74.9649913480976,
B,N,None,,0,123,123,123,,,,,,,,,,,,325.1005139350891,330.9958019000005,331.08942190000016,331.30287639999915,None,1,332.1964398,,,,,,,,,,,,,,,,352372,001,2024-05-14_18h09.55.027,nBack,2022.2.5,74.9649913480976,
A,N,None,,0,124,124,124,,,,,,,,,,,,327.82116174697876,333.70343780000076,333.78364150000016,334.01062869999987,None,1,334.89076849999947,334.89076849999947,,,,,,,,,,,,,,,352372,001,2024-05-14_18h09.55.027,nBack,2022.2.5,74.9649913480976,
X,N,None,,0,125,125,125,,,,,,,,,,,,330.5243730545044,336.39788840000074,336.4913639999995,336.7039585000002,None,1,337.5975245999998,,,,,,,,,,,,,,,,352372,001,2024-05-14_18h09.55.027,nBack,2022.2.5,74.9649913480976,
V,N,None,,0,126,126,126,,,,,,,,,,,,333.2313234806061,339.1054361000006,339.18567450000046,339.41265139999996,None,1,340.2929688000004,340.2929688000004,,,,,,,,,,,,,,,352372,001,2024-05-14_18h09.55.027,nBack,2022.2.5,74.9649913480976,
V,Y,z,,0,127,127,127,,,,,,,,,,,,335.926326751709,341.7998738999995,341.8799947999996,342.10693569999967,None,0,342.98698870000044,342.98698870000044,,,,,,,,,,,,,,,352372,001,2024-05-14_18h09.55.027,nBack,2022.2.5,74.9649913480976,
X,N,None,,0,128,128,128,,,,,,,,,,,,338.6213479042053,344.49444869999934,344.5876769000006,344.8002441999997,None,1,345.6937995999997,,,,,,,,,,,,,,,,352372,001,2024-05-14_18h09.55.027,nBack,2022.2.5,74.9649913480976,
V,N,None,,0,129,129,129,,,,,,,,,,,,341.3176484107971,347.2018551000001,347.28198209999937,347.508748799999,None,1,348.3889326999997,348.3889326999997,,,,,,,,,,,,,,,352372,001,2024-05-14_18h09.55.027,nBack,2022.2.5,74.9649913480976,
V,Y,z,,0,130,130,130,,,,,,,,,,,,343.3964669704437,349.8962642000006,349.9896915999998,350.20307110000067,z,1,350.4563183999999,,0.45050950000040757,,,,,,,,,,,,,,352372,001,2024-05-14_18h09.55.027,nBack,2022.2.5,74.9649913480976,
W,N,None,,0,131,131,131,,,,,,,,,,,,346.0865275859833,351.9634960000003,352.05723899999975,352.27066080000077,None,1,353.16320839999935,,,,,,,,,,,,,,,,352372,001,2024-05-14_18h09.55.027,nBack,2022.2.5,74.9649913480976,
C,N,None,,0,132,132,132,,,,,,,,,,,,348.7753195762634,354.6710844999998,354.75140309999915,354.97824410000067,None,1,355.85855099999935,,,,,,,,,,,,,,,,352372,001,2024-05-14_18h09.55.027,nBack,2022.2.5,74.9649913480976,
A,N,None,,0,133,133,133,,,,,,,,,,,,351.4903643131256,357.36452289999943,357.4449638999995,357.67151550000017,None,1,358.55273789999956,358.55273789999956,,,,,,,,,,,,,,,352372,001,2024-05-14_18h09.55.027,nBack,2022.2.5,74.9649913480976,
V,N,None,,0,134,134,134,,,,,,,,,,,,354.18607091903687,360.05981040000006,360.1534649999994,360.3670130999999,None,1,361.2597681999996,,,,,,,,,,,,,,,,352372,001,2024-05-14_18h09.55.027,nBack,2022.2.5,74.9649913480976,
A,N,None,,0,135,135,135,,,,,,,,,,,,356.8955750465393,362.7674872000007,362.84762749999936,363.07459390000076,None,1,363.9547299999995,363.9547299999995,,,,,,,,,,,,,,,352372,001,2024-05-14_18h09.55.027,nBack,2022.2.5,74.9649913480976,
A,Y,z,,0,136,136,136,,,,,,,,,,,,358.9612159729004,365.46100490000026,365.55434869999954,365.7688952999997,z,1,366.0221784000005,,0.44609959999979765,,,,,,,,,,,,,,352372,001,2024-05-14_18h09.55.027,nBack,2022.2.5,74.9649913480976,
A,Y,z,,0,137,137,137,,,,,,,,,,,,361.2605633735657,367.52947180000047,367.62273470000036,367.83631930000047,z,1,368.3295758000004,,0.6904066000006424,,,,,,,,,,,,,,352372,001,2024-05-14_18h09.55.027,nBack,2022.2.5,74.9649913480976,
C,N,None,,0,138,138,138,,,,,,,,,,,,363.9562363624573,369.8367410999999,369.9304482000007,370.14376119999906,None,1,371.03739569999925,,,,,,,,,,,,,,,,352372,001,2024-05-14_18h09.55.027,nBack,2022.2.5,74.9649913480976,
W,N,None,,0,139,139,139,,,,,,,,,,,,366.66376304626465,372.5445405999999,372.6248663999995,372.8504639999992,None,1,373.7309203999994,373.7309203999994,,,,,,,,,,,,,,,352372,001,2024-05-14_18h09.55.027,nBack,2022.2.5,74.9649913480976,
W,Y,z,,0,140,140,140,,,,,,,,,,,,369.3645021915436,375.23890329999995,375.3189705999994,375.5457088999992,None,0,376.426016899999,376.426016899999,,,,,,,,,,,,,,,352372,001,2024-05-14_18h09.55.027,nBack,2022.2.5,74.9649913480976,
B,N,None,,0,141,141,141,,,,,,,,,,,,372.05574679374695,377.9330898999997,378.0266111000001,378.24012009999933,None,1,379.13373370000045,,,,,,,,,,,,,,,,352372,001,2024-05-14_18h09.55.027,nBack,2022.2.5,74.9649913480976,
C,N,None,,0,142,142,142,,,,,,,,,,,,374.76772952079773,380.6396765999998,380.71998189999977,380.9469205000005,None,1,381.8279290999999,381.8279290999999,,,,,,,,,,,,,,,352372,001,2024-05-14_18h09.55.027,nBack,2022.2.5,74.9649913480976,
X,N,None,,0,143,143,143,,,,,,,,,,,,377.4621160030365,383.33497890000035,383.42861529999936,383.642001799999,None,1,384.5385671999993,,,,,,,,,,,,,,,,352372,001,2024-05-14_18h09.55.027,nBack,2022.2.5,74.9649913480976,
Y,N,None,,0,144,144,144,,,,,,,,,,,,380.16715240478516,386.04271490000065,386.12294569999904,386.3497754,None,1,387.2299839999996,387.2299839999996,,,,,,,,,,,,,,,352372,001,2024-05-14_18h09.55.027,nBack,2022.2.5,74.9649913480976,
Y,Y,z,,0,145,145,145,,,,,,,,,,,,382.8634476661682,388.7361839999994,388.8296231000004,389.04311039999993,None,0,389.93749690000004,,,,,,,,,,,,,,,,352372,001,2024-05-14_18h09.55.027,nBack,2022.2.5,74.9649913480976,
C,N,None,,0,146,146,146,,,,,,,,,,,,385.5679461956024,391.4447371999995,391.52497609999955,391.75172629999906,None,1,392.63098979999995,392.63098979999995,,,,,,,,,,,,,,,352372,001,2024-05-14_18h09.55.027,nBack,2022.2.5,74.9649913480976,
,,,,,,,,,,,,,,,,,,,,,,,,,,,,,394.1391179000002,396.1265908999994,z,13.118471699999645,,,,,,,,,352372,001,2024-05-14_18h09.55.027,nBack,2022.2.5,74.9649913480976,
,None,None,V,,,,,0,0,0,0,,,,,,,,403.3863492012024,,,,,,410.46505140000045,,,,,,,,409.2734636999994,409.3565999000002,409.58358269999917,None,1,,,,352372,001,2024-05-14_18h09.55.027,nBack,2022.2.5,74.9649913480976,
,None,None,W,,,,,0,1,1,1,,,,,,,,406.09952878952026,,,,,,413.1584397000006,,,,,,,,411.9722533000004,412.0524301000005,412.27937369999927,None,1,413.1584397000006,,,352372,001,2024-05-14_18h09.55.027,nBack,2022.2.5,74.9649913480976,
,N,None,X,,,,,0,2,2,2,,,,,,,,408.77020359039307,,,,,,415.8671252999993,,,,,,,,414.66647229999944,414.76017649999994,414.97345700000005,None,1,,,,352372,001,2024-05-14_18h09.55.027,nBack,2022.2.5,74.9649913480976,
,Y,z,W,,,,,0,3,3,3,,,,,,,,410.6946017742157,,,,,,417.7606218000001,,,,,,,,417.3734559000004,417.45370229999935,417.6802451000003,z,1,,0.2823744999986957,,352372,001,2024-05-14_18h09.55.027,nBack,2022.2.5,74.9649913480976,
,N,None,V,,,,,0,4,4,4,,,,,,,,413.3910219669342,,,,,,420.4554891000007,,,,,,,,419.26824060000035,419.34856339999897,419.57543819999955,None,1,420.4554891000007,,,352372,001,2024-05-14_18h09.55.027,nBack,2022.2.5,74.9649913480976,
,N,None,Y,,,,,0,5,5,5,,,,,,,,416.09035754203796,,,,,,423.16322299999956,,,,,,,,421.9625646000004,422.05610650000017,422.2695896000005,None,1,,,,352372,001,2024-05-14_18h09.55.027,nBack,2022.2.5,74.9649913480976,
,N,None,C,,,,,0,6,6,6,,,,,,,,418.797301530838,,,,,,425.85747529999935,,,,,,,,424.66807940000035,424.7497103000005,424.97618689999945,None,1,425.85747529999935,,,352372,001,2024-05-14_18h09.55.027,nBack,2022.2.5,74.9649913480976,
,Y,z,Y,,,,,0,7,7,7,,,,,,,,420.6742181777954,,,,,,427.73804070000006,,,,,,,,427.3647944000004,427.45809589999953,427.6715901000007,z,1,,0.2665197000005719,,352372,001,2024-05-14_18h09.55.027,nBack,2022.2.5,74.9649913480976,
,Y,z,C,,,,,0,8,8,8,,,,,,,,422.62492537498474,,,,,,429.6848047000003,,,,,,,,429.2442331000002,429.3378345000001,429.55139229999986,z,1,,0.32254099999954633,,352372,001,2024-05-14_18h09.55.027,nBack,2022.2.5,74.9649913480976,
,N,None,B ,,,,,0,9,9,9,,,,,,,,425.31805896759033,,,,,,432.37977709999905,,,,,,,,431.19252099999903,431.2728991999993,431.4996611000006,None,1,432.37977709999905,,,352372,001,2024-05-14_18h09.55.027,nBack,2022.2.5,74.9649913480976,
,N,None,Y,,,,,0,10,10,10,,,,,,,,428.00870156288147,,,,,,435.08757119999973,,,,,,,,433.8871132999993,433.9805916000005,434.19386569999915,None,1,,,,352372,001,2024-05-14_18h09.55.027,nBack,2022.2.5,74.9649913480976,
,N,None,B,,,,,0,11,11,11,,,,,,,,429.97435784339905,,,,,,437.0337736999991,,,,,,,,436.59272190000047,436.6738497999995,436.90066579999984,z,0,,0.34653509999952803,,352372,001,2024-05-14_18h09.55.027,nBack,2022.2.5,74.9649913480976,
,Y,z,Y,,,,,0,12,12,12,,,,,,,,432.66823744773865,,,,,,439.72918709999976,,,441.2352611999995,,,,,438.5418608,438.6221800000003,438.8489649000003,None,0,439.72918709999976,,,352372,001,2024-05-14_18h09.55.027,nBack,2022.2.5,74.9649913480976,
,N,None,C,,,,,0,13,13,13,,,,,,,,435.3589038848877,,,,,,442.4368297000001,,,,,,,,441.2352611999995,441.32871909999994,441.5423362999991,None,1,,,,352372,001,2024-05-14_18h09.55.027,nBack,2022.2.5,74.9649913480976,
,N,None,W,,,,,0,14,14,14,,,,,,,,438.06561636924744,,,,,,445.1305706999992,,,,,,,,443.9442333999996,444.024116999999,444.25109189999966,None,1,445.1305706999992,,,352372,001,2024-05-14_18h09.55.027,nBack,2022.2.5,74.9649913480976,
,N,None,A,,,,,0,15,15,15,,,,,,,,440.7645962238312,,,,,,447.83898860000045,,,,,,,,446.6382541999992,446.7317762999992,446.9453271000002,None,1,,,,352372,001,2024-05-14_18h09.55.027,nBack,2022.2.5,74.9649913480976,
,Y,z,W,,,,,0,16,16,16,,,,,,,,442.7258870601654,,,,,,449.78539549999914,,,,,,,,449.3448927999998,449.4250914000004,449.65215010000065,z,1,,0.33502779999980703,,352372,001,2024-05-14_18h09.55.027,nBack,2022.2.5,74.9649913480976,
,N,None,B,,,,,0,17,17,17,,,,,,,,445.4115126132965,,,,,,452.48058409999976,,,,,,,,451.2934889999997,451.3735233999996,451.60036579999905,None,1,452.48058409999976,,,352372,001,2024-05-14_18h09.55.027,nBack,2022.2.5,74.9649913480976,
,Y,z,W,,,,,0,18,18,18,,,,,,,,447.29656314849854,,,,,,454.3745335000003,,,,,,,,453.9876476999998,454.08129259999987,454.2946539000004,z,1,,0.2689851999984967,,352372,001,2024-05-14_18h09.55.027,nBack,2022.2.5,74.9649913480976,
,N,None,V,,,,,0,19,19,19,,,,,,,,449.99717593193054,,,,,,457.081336199999,,,,,,,,455.8816561000003,455.97520000000077,456.1887119999992,None,1,,,,352372,001,2024-05-14_18h09.55.027,nBack,2022.2.5,74.9649913480976,
,Y,z,W,,,,,0,20,20,20,,,,,,,,452.69984674453735,,,,,,459.77695139999923,,,,,,,,458.58918079999967,458.6694977999996,458.89630430000034,None,0,,,,352372,001,2024-05-14_18h09.55.027,nBack,2022.2.5,74.9649913480976,
,N,None,X,,,,,0,21,21,21,,,,,,,,455.3991892337799,,,,,,462.4708903999999,,,,,,,,461.2826022999998,461.36305899999934,461.58972039999935,None,1,462.4708903999999,,,352372,001,2024-05-14_18h09.55.027,nBack,2022.2.5,74.9649913480976,
,Y,z,W,,,,,0,22,22,22,,,,,,,,457.5034852027893,,,,,,464.5649821999996,,,,,,,,463.9778595000007,464.0714618000002,464.28501490000053,z,1,,0.47355809999862686,,352372,001,2024-05-14_18h09.55.027,nBack,2022.2.5,74.9649913480976,
,N,None,A,,,,,0,23,23,23,,,,,,,,460.1999831199646,,,,,,467.2726318999994,,,,,,,,466.07200919999923,466.1656232999994,466.3791521999992,None,1,,,,352372,001,2024-05-14_18h09.55.027,nBack,2022.2.5,74.9649913480976,
,N,None,X,,,,,0,24,24,24,,,,,,,,462.89933347702026,,,,,,469.9663185999998,,,,,,,,468.77972729999965,468.85790760000054,469.08568340000056,None,1,469.9663185999998,,,352372,001,2024-05-14_18h09.55.027,nBack,2022.2.5,74.9649913480976,
,N,None,V,,,,,0,25,25,25,,,,,,,,465.6025607585907,,,,,,472.66126369999984,,,,,,,,471.4744482999995,471.5543103,471.78105399999913,None,1,472.66126369999984,,,352372,001,2024-05-14_18h09.55.027,nBack,2022.2.5,74.9649913480976,
,N,None,W,,,,,0,26,26,26,,,,,,,,468.29574179649353,,,,,,475.36926949999906,,,,,,,,474.1683675000004,474.2619388999992,474.47534579999956,None,1,,,,352372,001,2024-05-14_18h09.55.027,nBack,2022.2.5,74.9649913480976,
,N,None,A,,,,,0,27,27,27,,,,,,,,470.9956922531128,,,,,,478.0631300999994,,,,,,,,476.8750319999999,476.95559350000076,477.18206830000054,None,1,478.0631300999994,,,352372,001,2024-05-14_18h09.55.027,nBack,2022.2.5,74.9649913480976,
,N,None,X,,,,,0,28,28,28,,,,,,,,473.6944317817688,,,,,,480.77025180000055,,,,,,,,479.57028849999915,479.66395609999927,479.8774625999995,None,1,,,,352372,001,2024-05-14_18h09.55.027,nBack,2022.2.5,74.9649913480976,
,N,None,V,,,,,0,29,29,29,,,,,,,,476.3952159881592,,,,,,483.4651804999994,,,,,,,,482.2779625999992,482.35823119999986,482.58505329999934,None,1,483.4651804999994,,,352372,001,2024-05-14_18h09.55.027,nBack,2022.2.5,74.9649913480976,
,Y,z,X,,,,,0,30,30,30,,,,,,,,478.346476316452,,,,,,485.41153870000016,,,,,,,,484.9712577999999,485.06509189999997,485.2784023999993,z,1,,0.3268480999995518,,352372,001,2024-05-14_18h09.55.027,nBack,2022.2.5,74.9649913480976,
,N,None,A,,,,,0,31,31,31,,,,,,,,481.04340291023254,,,,,,488.10700929999985,,,489.612889,,,,,486.9197356000004,486.99993899999936,487.2267764999997,None,1,488.10700929999985,,,352372,001,2024-05-14_18h09.55.027,nBack,2022.2.5,74.9649913480976,
,N,None,V,,,,,0,32,32,32,,,,,,,,483.7384932041168,,,,,,490.8149537999998,,,,,,,,489.612889,489.7068189999991,489.9210884999993,None,1,,,,352372,001,2024-05-14_18h09.55.027,nBack,2022.2.5,74.9649913480976,
,Y,z,A,,,,,0,33,33,33,,,,,,,,486.12352442741394,,,,,,493.1877955,,,,,,,,492.32169500000055,492.4019093000006,492.6266543999991,z,1,,0.7621966999995493,,352372,001,2024-05-14_18h09.55.027,nBack,2022.2.5,74.9649913480976,
,N,None,C,,,,,0,34,34,34,,,,,,,,488.81904339790344,,,,,,495.8830323000002,,,,,,,,494.6958567999991,494.7761205000006,495.00299690000065,None,1,495.8830323000002,,,352372,001,2024-05-14_18h09.55.027,nBack,2022.2.5,74.9649913480976,
,N,None,X,,,,,0,35,35,35,,,,,,,,491.50432324409485,,,,,,498.5908992000004,,,,,,,,497.3892629999991,497.4830263999993,497.69656620000023,None,1,,,,352372,001,2024-05-14_18h09.55.027,nBack,2022.2.5,74.9649913480976,
,N,None,A,,,,,0,36,36,36,,,,,,,,494.2180531024933,,,,,,501.2841542999995,,,,,,,,500.0979024999997,500.17814069999986,500.4048813999998,None,1,501.2841542999995,,,352372,001,2024-05-14_18h09.55.027,nBack,2022.2.5,74.9649913480976,
,N,None,B,,,,,0,37,37,37,,,,,,,,496.91436791419983,,,,,,503.9927029999999,,,,,,,,502.79218109999965,502.8857043000007,503.099293199999,None,1,,,,352372,001,2024-05-14_18h09.55.027,nBack,2022.2.5,74.9649913480976,
,Y,z,A,,,,,0,38,38,38,,,,,,,,498.9819121360779,,,,,,506.0468067999991,,,,,,,,505.498877,505.5791441000001,505.80687670000043,z,1,,0.44637199999851873,,352372,001,2024-05-14_18h09.55.027,nBack,2022.2.5,74.9649913480976,
,Y,z,B,,,,,0,39,39,39,,,,,,,,500.87193536758423,,,,,,507.9408134000005,,,,,,,,507.55441430000064,507.63426489999983,507.86091769999985,z,1,,0.28167020000000775,,352372,001,2024-05-14_18h09.55.027,nBack,2022.2.5,74.9649913480976,
,N,None,C,,,,,0,40,40,40,,,,,,,,503.5726833343506,,,,,,510.6486098000005,,,,,,,,509.44689859999926,509.54046299999936,509.7540535999997,None,1,,,,352372,001,2024-05-14_18h09.55.027,nBack,2022.2.5,74.9649913480976,
,Y,z,B,,,,,0,41,41,41,,,,,,,,505.5576469898224,,,,,,512.6224562000007,,,,,,,,512.1555981000001,512.2360666000004,512.4627810000002,z,1,,0.3615682999989076,,352372,001,2024-05-14_18h09.55.027,nBack,2022.2.5,74.9649913480976,
,N,None,A,,,,,0,42,42,42,,,,,,,,508.25775241851807,,,,,,515.3303429999996,,,,,,,,514.1296562999996,514.2233080000005,514.4367612999995,None,1,,,,352372,001,2024-05-14_18h09.55.027,nBack,2022.2.5,74.9649913480976,
,N,None,W,,,,,0,43,43,43,,,,,,,,510.9458589553833,,,,,,518.0246423000008,,,,,,,,516.8362935999994,516.9164621,517.1435698000005,None,1,,,,352372,001,2024-05-14_18h09.55.027,nBack,2022.2.5,74.9649913480976,
,N,None,B ,,,,,0,44,44,44,,,,,,,,513.6483883857727,,,,,,520.7167757000007,,,,,,,,519.5317082000001,519.6118193000002,519.8386508000003,None,1,520.7167757000007,,,352372,001,2024-05-14_18h09.55.027,nBack,2022.2.5,74.9649913480976,
,Y,z,W,,,,,0,45,45,45,,,,,,,,515.6022255420685,,,,,,522.6661901999996,,,,,,,,522.2258810000003,522.3195269999997,522.5331494000002,z,1,,0.3301425999998173,,352372,001,2024-05-14_18h09.55.027,nBack,2022.2.5,74.9649913480976,
,Y,z,B ,,,,,0,46,46,46,,,,,,,,517.5259985923767,,,,,,524.5869256999995,,,,,,,,524.1733201999996,524.2668637000006,524.4804886000002,z,1,,0.2982907999994495,,352372,001,2024-05-14_18h09.55.027,nBack,2022.2.5,74.9649913480976,
,N,None,A,,,,,0,47,47,47,,,,,,,,520.2160539627075,,,,,,527.2948269999997,,,,,,,,526.0942966000002,526.1876348999995,526.4010436999997,None,1,,,,352372,001,2024-05-14_18h09.55.027,nBack,2022.2.5,74.9649913480976,
,N,None,A,,,,,0,48,48,48,,,,,,,,522.6211042404175,,,,,,529.6811729000001,,,,,,,,528.8018439999996,528.8810377999998,529.1077452999998,z,0,,0.7749620999984472,,352372,001,2024-05-14_18h09.55.027,nBack,2022.2.5,74.9649913480976,
,N,None,W,,,,,0,49,49,49,,,,,,,,525.3149290084839,,,,,,532.3765841999993,,,533.8826253000007,,,,,531.1892332000007,531.2694126999995,531.4963484,None,1,532.3765841999993,,,352372,001,2024-05-14_18h09.55.027,nBack,2022.2.5,74.9649913480976,
,Y,z,A,,,,,0,50,50,50,,,,,,,,527.297266960144,,,,,,534.3631865999996,,,,,,,,533.8826253000007,533.9760819999992,534.1896257999997,z,1,,0.36866319999899133,,352372,001,2024-05-14_18h09.55.027,nBack,2022.2.5,74.9649913480976,
,Y,z,W,,,,,0,51,51,51,,,,,,,,529.260591506958,,,,,,536.3248540999994,,,,,,,,535.8708793000005,535.9512814999998,536.1781138999995,z,1,,0.3529038999986369,,352372,001,2024-05-14_18h09.55.027,nBack,2022.2.5,74.9649913480976,
,N,None,V,,,,,0,52,52,52,,,,,,,,531.9543697834015,,,,,,539.0325826999997,,,,,,,,537.8310270000002,537.9243936999992,538.1387691,None,1,,,,352372,001,2024-05-14_18h09.55.027,nBack,2022.2.5,74.9649913480976,
,N,None,B,,,,,0,53,53,53,,,,,,,,534.6626060009003,,,,,,541.7255905000002,,,,,,,,540.5393714000002,540.6196123999998,540.8455168,None,1,541.7255905000002,,,352372,001,2024-05-14_18h09.55.027,nBack,2022.2.5,74.9649913480976,
,N,None,Y,,,,,0,54,54,54,,,,,,,,537.3601422309875,,,,,,544.4208811999997,,,,,,,,543.233604699999,543.3141063000003,543.5407524000002,None,1,544.4208811999997,,,352372,001,2024-05-14_18h09.55.027,nBack,2022.2.5,74.9649913480976,
,N,None,Y,,,,,0,55,55,55,,,,,,,,540.0501630306244,,,,,,547.1286218999994,,,,,,,,545.9282825999999,546.0216560999997,546.2350941999994,None,1,,,,352372,001,2024-05-14_18h09.55.027,nBack,2022.2.5,74.9649913480976,
,N,None,V,,,,,0,56,56,56,,,,,,,,542.7627964019775,,,,,,549.8222239000006,,,,,,,,548.6356515999996,548.7139052999992,548.941796699999,None,1,549.8222239000006,,,352372,001,2024-05-14_18h09.55.027,nBack,2022.2.5,74.9649913480976,
,N,None,V,,,,,0,57,57,57,,,,,,,,545.4459447860718,,,,,,552.530678699999,,,,,,,,551.3301615,551.423510999999,551.6371135999998,None,1,,,,352372,001,2024-05-14_18h09.55.027,nBack,2022.2.5,74.9649913480976,
,Y,z,V,,,,,0,58,58,58,,,,,,,,547.3478643894196,,,,,,554.4112239999995,,,,,,,,554.0377683999995,554.1179384000006,554.3447393999995,z,1,,0.2705839999998716,,352372,001,2024-05-14_18h09.55.027,nBack,2022.2.5,74.9649913480976,
,N,None,A,,,,,0,59,59,59,,,,,,,,550.0422251224518,,,,,,557.1179252999991,,,,,,,,555.9183469,556.0118867000001,556.2254697000008,None,1,,,,352372,001,2024-05-14_18h09.55.027,nBack,2022.2.5,74.9649913480976,
,N,None,B,,,,,0,60,60,60,,,,,,,,552.7410497665405,,,,,,559.8128565000006,,,,,,,,558.6259518999996,558.7062014999992,558.9330061000001,None,1,,,,352372,001,2024-05-14_18h09.55.027,nBack,2022.2.5,74.9649913480976,
,Y,z,A,,,,,0,61,61,61,,,,,,,,554.7085666656494,,,,,,561.7729416999991,,,,,,,,561.3196788999994,561.3995685999998,561.6263858000002,z,1,,0.35367959999894083,,352372,001,2024-05-14_18h09.55.027,nBack,2022.2.5,74.9649913480976,
,Y,z,B,,,,,0,62,62,62,,,,,,,,557.194961309433,,,,,,564.254818899999,,,,,,,,563.2810790000003,563.3613002999991,563.5880529000005,z,1,,0.868500699998549,,352372,001,2024-05-14_18h09.55.027,nBack,2022.2.5,74.9649913480976,
,Y,z,A,,,,,0,63,63,63,,,,,,,,559.3967962265015,,,,,,566.4555674999992,,,,,,,,565.7609245000003,565.8556549999994,566.0690682000004,z,1,,0.5845335999983945,,352372,001,2024-05-14_18h09.55.027,nBack,2022.2.5,74.9649913480976,
,Y,z,B,,,,,0,64,64,64,,,,,,,,561.3156003952026,,,,,,568.3765292999997,,,,,,,,567.9627535,568.0561963,568.2697747999991,z,1,,0.2961204999992333,,352372,001,2024-05-14_18h09.55.027,nBack,2022.2.5,74.9649913480976,
,N,None,C,,,,,0,65,65,65,,,,,,,,564.0119442939758,,,,,,571.0844132000002,,,,,,,,569.8834573999993,569.9770234000007,570.1905657999996,None,1,,,,352372,001,2024-05-14_18h09.55.027,nBack,2022.2.5,74.9649913480976,
,N,None,V,,,,,0,66,66,66,,,,,,,,566.7163398265839,,,,,,573.7776080000003,,,,,,,,572.5888429999995,572.6691527000003,572.8971727000007,None,1,573.7776080000003,,,352372,001,2024-05-14_18h09.55.027,nBack,2022.2.5,74.9649913480976,
,N,None,W,,,,,0,67,67,67,,,,,,,,569.4132425785065,,,,,,576.472663999999,,,,,,,,575.2854662999998,575.3656809000004,575.5925802999991,None,1,576.472663999999,,,352372,001,2024-05-14_18h09.55.027,nBack,2022.2.5,74.9649913480976,
,N,None,W,,,,,0,68,68,68,,,,,,,,572.1062459945679,,,,,,579.1803813999995,,,,,,,,577.9799729999995,578.073417399999,578.2868407000005,None,1,,,,352372,001,2024-05-14_18h09.55.027,nBack,2022.2.5,74.9649913480976,
,Y,z,W,,,,,0,69,69,69,,,,,,,,574.0390026569366,,,,,,581.0999764999997,,,,,,,,580.6861525000004,580.7666561999995,580.9936555999993,z,1,,0.31387049999830197,,352372,001,2024-05-14_18h09.55.027,nBack,2022.2.5,74.9649913480976,
,N,None,A,,,,,0,70,70,70,,,,,,,,576.7333719730377,,,,,,583.7953452999991,,,585.3013761000002,,,,,582.6081663000004,582.6883667000002,582.9151177999993,None,1,583.7953452999991,,,352372,001,2024-05-14_18h09.55.027,nBack,2022.2.5,74.9649913480976,
,Y,z,W,,,,,0,71,71,71,,,,,,,,578.6690475940704,,,,,,585.7296069000004,,,,,,,,585.3013761000002,585.3950650000006,585.6084436000001,z,1,,0.3184605999995256,,352372,001,2024-05-14_18h09.55.027,nBack,2022.2.5,74.9649913480976,
,Y,z,A,,,,,0,72,72,72,,,,,,,,580.6471607685089,,,,,,587.7166964000007,,,,,,,,587.2363771,587.3167059999996,587.5437077999995,z,1,,0.3844193999993877,,352372,001,2024-05-14_18h09.55.027,nBack,2022.2.5,74.9649913480976,
,N,None,X,,,,,0,73,73,73,,,,,,,,583.344761133194,,,,,,590.4244832000004,,,,,,,,589.2228795999999,589.3164187000002,589.5299183999996,None,1,,,,352372,001,2024-05-14_18h09.55.027,nBack,2022.2.5,74.9649913480976,
,N,None,Y,,,,,0,74,74,74,,,,,,,,586.0560545921326,,,,,,593.1178302999997,,,,,,,,591.9182125999996,592.0117160999998,592.2253146999992,None,1,593.1178302999997,,,352372,001,2024-05-14_18h09.55.027,nBack,2022.2.5,74.9649913480976,
,N,None,C,,,,,0,75,75,75,,,,,,,,588.7504274845123,,,,,,595.8130622999997,,,,,,,,594.6257894999999,594.7060468,594.9329235999994,None,1,595.8130622999997,,,352372,001,2024-05-14_18h09.55.027,nBack,2022.2.5,74.9649913480976,
,N,None,X,,,,,0,76,76,76,,,,,,,,591.4423155784607,,,,,,598.5210547000006,,,,,,,,597.3192280000003,597.4129940000003,597.6263574999994,None,1,,,,352372,001,2024-05-14_18h09.55.027,nBack,2022.2.5,74.9649913480976,
,N,None,B,,,,,0,77,77,77,,,,,,,,594.139997959137,,,,,,601.2142206999997,,,,,,,,600.0278373000001,600.1079231999993,600.3349462000006,None,1,601.2142206999997,,,352372,001,2024-05-14_18h09.55.027,nBack,2022.2.5,74.9649913480976,
,Y,z,X,,,,,0,78,78,78,,,,,,,,596.1119630336761,,,,,,603.175707299999,,,,,,,,602.7221523000007,602.8157504999999,603.0291997000004,z,1,,0.33620150000024296,,352372,001,2024-05-14_18h09.55.027,nBack,2022.2.5,74.9649913480976,
,Y,z,B,,,,,0,79,79,79,,,,,,,,597.9950654506683,,,,,,605.0553940999998,,,,,,,,604.6828853999996,604.7744407999999,604.9890326000004,z,1,,0.26658369999859133,,352372,001,2024-05-14_18h09.55.027,nBack,2022.2.5,74.9649913480976,
,N,None,B,,,,,0,80,80,80,,,,,,,,600.2981834411621,,,,,,607.3639452000007,,,,,,,,606.5637418999995,606.6438278999995,606.8706505999999,z,0,,0.6960756999997102,,352372,001,2024-05-14_18h09.55.027,nBack,2022.2.5,74.9649913480976,
,N,None,V,,,,,0,81,81,81,,,,,,,,602.9982726573944,,,,,,610.0717103999996,,,,,,,,608.8701091000003,608.9637060999994,609.1769648999998,None,1,,,,352372,001,2024-05-14_18h09.55.027,nBack,2022.2.5,74.9649913480976,
,Y,z,B,,,,,0,82,82,82,,,,,,,,605.0245459079742,,,,,,612.0857612,,,,,,,,611.5786922000007,611.6589996999992,611.8857520000001,z,1,,0.40142269999887503,,352372,001,2024-05-14_18h09.55.027,nBack,2022.2.5,74.9649913480976,
,N,None,C,,,,,0,83,83,83,,,,,,,,607.7152187824249,,,,,,614.7936938000003,,,,,,,,613.5918153999992,613.6856934000007,613.8999932999996,None,1,,,,352372,001,2024-05-14_18h09.55.027,nBack,2022.2.5,74.9649913480976,
,N,None,Y,,,,,0,84,84,84,,,,,,,,610.4240081310272,,,,,,617.4867735000007,,,,,,,,616.3004923000008,616.3807950999999,616.6076630999996,None,1,617.4867735000007,,,352372,001,2024-05-14_18h09.55.027,nBack,2022.2.5,74.9649913480976,
,Y,z,C,,,,,0,85,85,85,,,,,,,,612.2915365695953,,,,,,619.3549655000006,,,,,,,,618.9948081999992,619.0750919000002,619.3018204,z,1,,0.2572509000001446,,352372,001,2024-05-14_18h09.55.027,nBack,2022.2.5,74.9649913480976,
,N,None,B,,,,,0,86,86,86,,,,,,,,614.9897346496582,,,,,,622.0627779999995,,,,,,,,620.8612212000007,620.9546329000004,621.1682627999999,None,1,,,,352372,001,2024-05-14_18h09.55.027,nBack,2022.2.5,74.9649913480976,
,N,None,X,,,,,0,87,87,87,,,,,,,,617.6922550201416,,,,,,624.7550479999991,,,,,,,,623.5564761000005,623.6500775999993,623.8636452999999,None,1,624.7550479999991,,,352372,001,2024-05-14_18h09.55.027,nBack,2022.2.5,74.9649913480976,
,Y,z,B,,,,,0,88,88,88,,,,,,,,619.7946615219116,,,,,,626.8778471999995,,,,,,,,626.2641466999994,626.3443745999994,626.571215599999,z,1,,0.5156038999994053,,352372,001,2024-05-14_18h09.55.027,nBack,2022.2.5,74.9649913480976,
,N,None,C,,,,,0,89,89,89,,,,,,,,622.5054678916931,,,,,,629.5846175999995,,,,,,,,628.3847987999998,628.4784791999991,628.6899897999992,None,1,,,,352372,001,2024-05-14_18h09.55.027,nBack,2022.2.5,74.9649913480976,
,N,None,Y,,,,,0,90,90,90,,,,,,,,625.2049939632416,,,,,,632.2798270999992,,,,,,,,631.0925974000002,631.1731056000008,631.3996213999999,None,1,,,,352372,001,2024-05-14_18h09.55.027,nBack,2022.2.5,74.9649913480976,
,N,None,Y,,,,,0,91,91,91,,,,,,,,627.9143931865692,,,,,,634.9741563999996,,,,,,,,633.7864000999998,633.8670387000002,634.0939543999993,None,1,634.9741563999996,,,352372,001,2024-05-14_18h09.55.027,nBack,2022.2.5,74.9649913480976,
,N,None,C,,,,,0,92,92,92,,,,,,,,630.6037735939026,,,,,,637.6809410000005,,,,,,,,636.4812172999991,636.5748839999997,636.7861353000008,None,1,,,,352372,001,2024-05-14_18h09.55.027,nBack,2022.2.5,74.9649913480976,
,N,None,W,,,,,0,93,93,93,,,,,,,,633.3131966590881,,,,,,640.3758935999995,,,,,,,,639.1888509,639.2689716999994,639.4955515000001,None,1,640.3758935999995,,,352372,001,2024-05-14_18h09.55.027,nBack,2022.2.5,74.9649913480976,
,N,None,X,,,,,0,94,94,94,,,,,,,,636.010749578476,,,,,,643.0838956000007,,,,,,,,641.8831499999997,641.9768125999999,642.1903560999999,None,1,,,,352372,001,2024-05-14_18h09.55.027,nBack,2022.2.5,74.9649913480976,
,N,None,V,,,,,0,95,95,95,,,,,,,,638.706458568573,,,,,,645.7770507999994,,,,,,,,644.5908115999991,644.6710094999999,644.8969682999996,None,1,645.7770507999994,,,352372,001,2024-05-14_18h09.55.027,nBack,2022.2.5,74.9649913480976,
,N,None,C,,,,,0,96,96,96,,,,,,,,641.4096038341522,,,,,,648.4859063000004,,,,,,,,647.2850815000002,647.3787314000001,647.5923361000005,None,1,,,,352372,001,2024-05-14_18h09.55.027,nBack,2022.2.5,74.9649913480976,
,N,None,B,,,,,0,97,97,97,,,,,,,,644.1077530384064,,,,,,651.1800664000002,,,,,,,,649.9928223000006,650.0731187999991,650.3000389999997,None,1,,,,352372,001,2024-05-14_18h09.55.027,nBack,2022.2.5,74.9649913480976,
,Y,z,C,,,,,0,98,98,98,,,,,,,,646.5284147262573,,,,,,653.5932802000007,,,,,,,,652.6871616000008,652.7786300000007,652.9933913000004,z,1,,0.7990929999996297,,352372,001,2024-05-14_18h09.55.027,nBack,2022.2.5,74.9649913480976,
,N,None,C,,,,,0,99,99,99,,,,,,,,648.4822211265564,,,,,,655.5416760000007,,,,,,,,655.1015162999993,655.1815841000007,655.4084712000003,z,0,,0.33554820000063046,,352372,001,2024-05-14_18h09.55.027,nBack,2022.2.5,74.9649913480976,
,N,None,X,,,,,0,100,100,100,,,,,,,,651.1710107326508,,,,,,658.2493833999997,,,,,,,,657.0478311999996,657.1414760999996,657.3548231000004,None,1,,,,352372,001,2024-05-14_18h09.55.027,nBack,2022.2.5,74.9649913480976,
,Y,z,C,,,,,0,101,101,101,,,,,,,,653.1196465492249,,,,,,660.1833554000004,,,,,,,,659.756429699999,659.8366710999999,660.0634604000006,z,1,,0.3316973000000871,,352372,001,2024-05-14_18h09.55.027,nBack,2022.2.5,74.9649913480976,
,N,None,V,,,,,0,102,102,102,,,,,,,,655.8123733997345,,,,,,662.8910868999992,,,,,,,,661.6894701000001,661.7841260999994,661.9975314999992,None,1,,,,352372,001,2024-05-14_18h09.55.027,nBack,2022.2.5,74.9649913480976,
,Y,z,C,,,,,0,103,103,103,,,,,,,,658.1324031352997,,,,,,665.1974826000005,,,,,,,,664.3981550000008,664.4784008999995,664.7053156999991,z,1,,0.7019214000010834,,352372,001,2024-05-14_18h09.55.027,nBack,2022.2.5,74.9649913480976,
,N,None,C,,,,,0,104,104,104,,,,,,,,660.8324739933014,,,,,,667.8928028999999,,,669.3989535000001,,,,,666.7057844999999,666.7859991000005,667.0127909000003,None,1,667.8928028999999,,,352372,001,2024-05-14_18h09.55.027,nBack,2022.2.5,74.9649913480976,
,N,None,W,,,,,0,105,105,105,,,,,,,,663.5150351524353,,,,,,670.6005731999994,,,,,,,,669.3989535000001,669.4925791000005,669.7059998999994,None,1,,,,352372,001,2024-05-14_18h09.55.027,nBack,2022.2.5,74.9649913480976,
,N,None,Y,,,,,0,106,106,106,,,,,,,,666.2282183170319,,,,,,673.2942058999997,,,,,,,,672.1075741000004,672.1879098999998,672.4146072999993,None,1,673.2942058999997,,,352372,001,2024-05-14_18h09.55.027,nBack,2022.2.5,74.9649913480976,
,N,None,B,,,,,0,107,107,107,,,,,,,,668.9226026535034,,,,,,676.0024905999999,,,,,,,,674.8018644999993,674.8954162999999,675.1090387999993,None,1,,,,352372,001,2024-05-14_18h09.55.027,nBack,2022.2.5,74.9649913480976,
,Y,z,Y,,,,,0,108,108,108,,,,,,,,671.1201424598694,,,,,,678.1900578999994,,,,,,,,677.5085894999993,677.5890911999995,677.8166469999996,z,1,,0.5880046999991464,,352372,001,2024-05-14_18h09.55.027,nBack,2022.2.5,74.9649913480976,
,N,None,V,,,,,0,109,109,109,,,,,,,,673.816463470459,,,,,,680.8967477000006,,,,,,,,679.6972509000007,679.7907553999994,680.0041196000002,None,1,,,,352372,001,2024-05-14_18h09.55.027,nBack,2022.2.5,74.9649913480976,
,N,None,V,,,,,0,110,110,110,,,,,,,,676.5184116363525,,,,,,683.5920624999999,,,,,,,,682.4048684999998,682.4850349000008,682.7118131000007,None,1,,,,352372,001,2024-05-14_18h09.55.027,nBack,2022.2.5,74.9649913480976,
,N,None,Y,,,,,0,111,111,111,,,,,,,,679.2253606319427,,,,,,686.2862710999998,,,,,,,,685.0980091999991,685.1785411000001,685.4052188000005,None,1,686.2862710999998,,,352372,001,2024-05-14_18h09.55.027,nBack,2022.2.5,74.9649913480976,
,N,None,A,,,,,0,112,112,112,,,,,,,,681.9091036319733,,,,,,688.9933385999993,,,,,,,,687.7933178000003,687.8870096999999,688.1004709999997,None,1,,,,352372,001,2024-05-14_18h09.55.027,nBack,2022.2.5,74.9649913480976,
,Y,z,Y,,,,,0,113,113,113,,,,,,,,684.6260223388672,,,,,,691.6882483999998,,,,,,,,690.5011673999998,690.5812124000004,690.8076734999995,None,0,691.6882483999998,,,352372,001,2024-05-14_18h09.55.027,nBack,2022.2.5,74.9649913480976,
,N,None,Y,,,,,0,114,114,114,,,,,,,,686.7467427253723,,,,,,693.8080178,,,,,,,,693.1944954999999,693.2879372999996,693.5014250999993,z,0,,0.5006768000002921,,352372,001,2024-05-14_18h09.55.027,nBack,2022.2.5,74.9649913480976,
,N,None,C,,,,,0,115,115,115,,,,,,,,689.4385833740234,,,,,,696.5034698,,,,,,,,695.3161345000008,695.396249899999,695.6233637999994,None,1,696.5034698,,,352372,001,2024-05-14_18h09.55.027,nBack,2022.2.5,74.9649913480976,
,Y,z,Y,,,,,0,116,116,116,,,,,,,,691.4217941761017,,,,,,698.4907311000006,,,,,,,,698.0104520000004,698.1041086999994,698.3175547999999,z,1,,0.37313019999965036,,352372,001,2024-05-14_18h09.55.027,nBack,2022.2.5,74.9649913480976,
,N,None,Y,,,,,0,117,117,117,,,,,,,,694.1143450737,,,,,,701.1975306000004,,,,,,,,699.9980078999997,700.091413099999,700.304997199999,None,1,,,,352372,001,2024-05-14_18h09.55.027,nBack,2022.2.5,74.9649913480976,
,N,None,A,,,,,0,118,118,118,,,,,,,,696.8149983882904,,,,,,703.8928140000007,,,,,,,,702.7054912000003,702.7856909999991,703.012546599999,None,1,,,,352372,001,2024-05-14_18h09.55.027,nBack,2022.2.5,74.9649913480976,
,N,None,A,,,,,0,119,119,119,,,,,,,,699.5050826072693,,,,,,706.5871439000002,,,,,,,,705.3993181999995,705.4792784000001,705.7059303999995,None,1,706.5871439000002,,,352372,001,2024-05-14_18h09.55.027,nBack,2022.2.5,74.9649913480976,
,N,None,C,,,,,0,120,120,120,,,,,,,,702.212593793869,,,,,,709.2938797999996,,,,,,,,708.0942156000001,708.1877225999997,708.4011688999999,None,1,,,,352372,001,2024-05-14_18h09.55.027,nBack,2022.2.5,74.9649913480976,
,N,None,Y,,,,,0,121,121,121,,,,,,,,704.9293901920319,,,,,,711.9892232999991,,,,,,,,710.8018491000003,710.8820369999994,711.1088834999991,None,1,711.9892232999991,,,352372,001,2024-05-14_18h09.55.027,nBack,2022.2.5,74.9649913480976,
,N,None,V,,,,,0,122,122,122,,,,,,,,707.6240119934082,,,,,,714.6968044999994,,,,,,,,713.4951015999995,713.5887084000005,713.8032175000008,None,1,,,,352372,001,2024-05-14_18h09.55.027,nBack,2022.2.5,74.9649913480976,
,N,None,B,,,,,0,123,123,123,,,,,,,,710.3277611732483,,,,,,717.3901272000003,,,,,,,,716.2038365000008,716.2840145999999,716.5107745000005,None,1,717.3901272000003,,,352372,001,2024-05-14_18h09.55.027,nBack,2022.2.5,74.9649913480976,
,N,None,B,,,,,0,124,124,124,,,,,,,,713.0234634876251,,,,,,720.0988612000001,,,,,,,,718.8982649999998,718.9917401999992,719.2051293999994,None,1,,,,352372,001,2024-05-14_18h09.55.027,nBack,2022.2.5,74.9649913480976,
,N,None,X,,,,,0,125,125,125,,,,,,,,715.7179811000824,,,,,,722.7931126999993,,,,,,,,721.6046896000007,721.6853596000001,721.9128153000001,None,1,,,,352372,001,2024-05-14_18h09.55.027,nBack,2022.2.5,74.9649913480976,
,N,None,A,,,,,0,126,126,126,,,,,,,,718.4235155582428,,,,,,725.486404199999,,,,,,,,724.300159299999,724.3803274999991,724.6049294999993,None,1,725.486404199999,,,352372,001,2024-05-14_18h09.55.027,nBack,2022.2.5,74.9649913480976,
,Y,z,X,,,,,0,127,127,127,,,,,,,,720.5073285102844,,,,,,727.5680976000003,,,,,,,,726.9943767999994,727.088085899999,727.3015515999996,z,1,,0.4561199999989185,,352372,001,2024-05-14_18h09.55.027,nBack,2022.2.5,74.9649913480976,
,Y,z,A,,,,,0,128,128,128,,,,,,,,722.4017782211304,,,,,,729.4614156000007,,,,,,,,729.0740046999999,729.1677438000006,729.3813895000003,z,1,,0.2683008999993035,,352372,001,2024-05-14_18h09.55.027,nBack,2022.2.5,74.9649913480976,
,N,None,B,,,,,0,129,129,129,,,,,,,,724.5842363834381,,,,,,731.6495890999995,,,,,,,,730.9691399999992,731.0494216999996,731.2763412999993,z,0,,0.5797298999987106,,352372,001,2024-05-14_18h09.55.027,nBack,2022.2.5,74.9649913480976,
,N,None,C,,,,,0,130,130,130,,,,,,,,727.284339427948,,,,,,734.3573849999993,,,,,,,,733.1557293999995,733.2493429999995,733.4627397999993,None,1,,,,352372,001,2024-05-14_18h09.55.027,nBack,2022.2.5,74.9649913480976,
,N,None,Y,,,,,0,131,131,131,,,,,,,,729.9900848865509,,,,,,737.0506344000005,,,,,,,,735.8644153999994,735.9444781999991,736.1714439000007,None,1,737.0506344000005,,,352372,001,2024-05-14_18h09.55.027,nBack,2022.2.5,74.9649913480976,
,N,None,X,,,,,0,132,132,132,,,,,,,,732.6812026500702,,,,,,739.7459371000004,,,,,,,,738.5586421000007,738.6388998000002,738.8656945000002,None,1,739.7459371000004,,,352372,001,2024-05-14_18h09.55.027,nBack,2022.2.5,74.9649913480976,
,N,None,W,,,,,0,133,133,133,,,,,,,,735.3813948631287,,,,,,742.4536394999996,,,,,,,,741.2519773000004,741.3456430999995,741.5590941999999,None,1,,,,352372,001,2024-05-14_18h09.55.027,nBack,2022.2.5,74.9649913480976,
,Y,z,X,,,,,0,134,134,134,,,,,,,,738.0864670276642,,,,,,745.146784999999,,,,,,,,743.9607187999991,744.0408418999996,744.2678445999991,None,0,745.146784999999,,,352372,001,2024-05-14_18h09.55.027,nBack,2022.2.5,74.9649913480976,
,N,None,V,,,,,0,135,135,135,,,,,,,,740.7720859050751,,,,,,747.8556449999996,,,,,,,,746.654910199999,746.7485675999997,746.9620355000006,None,1,,,,352372,001,2024-05-14_18h09.55.027,nBack,2022.2.5,74.9649913480976,
,N,None,C,,,,,0,136,136,136,,,,,,,,743.489684343338,,,,,,750.5499493999996,,,,,,,,749.3617305000007,749.4418693999996,749.6688498000003,None,1,750.5499493999996,,,352372,001,2024-05-14_18h09.55.027,nBack,2022.2.5,74.9649913480976,
,N,None,C,,,,,0,137,137,137,,,,,,,,746.184118270874,,,,,,753.2566332000006,,,,,,,,752.0570914,752.1506093000007,752.3639999000006,None,1,,,,352372,001,2024-05-14_18h09.55.027,nBack,2022.2.5,74.9649913480976,
,N,None,X,,,,,0,138,138,138,,,,,,,,748.8753573894501,,,,,,755.9517128000007,,,,,,,,754.7511632999995,754.8448145000002,755.0583026000004,None,1,,,,352372,001,2024-05-14_18h09.55.027,nBack,2022.2.5,74.9649913480976,
,N,None,Y,,,,,0,139,139,139,,,,,,,,751.585399389267,,,,,,758.6462348999994,,,,,,,,757.4579709999998,757.5381692999999,757.7655728999998,None,1,758.6462348999994,,,352372,001,2024-05-14_18h09.55.027,nBack,2022.2.5,74.9649913480976,
,N,None,A,,,,,0,140,140,140,,,,,,,,754.2779324054718,,,,,,761.3528986000001,,,,,,,,760.1532903000007,760.2467237000001,760.4602859999995,None,1,,,,352372,001,2024-05-14_18h09.55.027,nBack,2022.2.5,74.9649913480976,
,N,None,V,,,,,0,141,141,141,,,,,,,,756.9830317497253,,,,,,764.0481880999996,,,,,,,,762.8609672999992,762.9411061999999,763.167931,None,1,764.0481880999996,,,352372,001,2024-05-14_18h09.55.027,nBack,2022.2.5,74.9649913480976,
,Y,z,A,,,,,0,142,142,142,,,,,,,,758.9286615848541,,,,,,765.995699699999,,,,,,,,765.554252599999,765.6478432999993,765.8623451000003,z,1,,0.33252729999912845,,352372,001,2024-05-14_18h09.55.027,nBack,2022.2.5,74.9649913480976,
,Y,z,V,,,,,0,143,143,143,,,,,,,,760.9231164455414,,,,,,767.9828677999994,,,,,,,,767.5027601999991,767.5961492999995,767.8096776000002,z,1,,0.3642303999986325,,352372,001,2024-05-14_18h09.55.027,nBack,2022.2.5,74.9649913480976,
,N,None,W,,,,,0,144,144,144,,,,,,,,763.6181306838989,,,,,,770.6906990999996,,,,,,,,769.489012,769.5826546999997,769.7970452999998,None,1,,,,352372,001,2024-05-14_18h09.55.027,nBack,2022.2.5,74.9649913480976,
,Y,z,V,,,,,0,145,145,145,,,,,,,,766.3238270282745,,,,,,773.3843538000001,,,,,,,,772.1977100000004,772.2778529999996,772.5047087000003,None,0,773.3843538000001,,,352372,001,2024-05-14_18h09.55.027,nBack,2022.2.5,74.9649913480976,
,N,None,Y,,,,,0,146,146,146,,,,,,,,769.0201737880707,,,,,,776.0793042999994,,,,,,,,774.8920703999993,774.9722763999998,775.1990464999999,None,1,776.0793042999994,,,352372,001,2024-05-14_18h09.55.027,nBack,2022.2.5,74.9649913480976,
,,,,,,,,,,,,,,,,,,777.5855580999996,,,,,,,,,,,,,,,,,,,,,,778.0933260000002,,,,,,,
